Subject,Run,Type,Trial,Category,key_pressed,RESP,Accuracy,RT
8185,1,RB,1,a,j,b,0,0.853
8185,1,RB,2,a,j,b,0,0.499
8185,1,RB,3,b,d,a,0,0.501
8185,1,RB,4,b,d,a,0,0.775
8185,1,RB,5,b,j,b,1,0.973
8185,1,RB,6,b,d,a,0,0.98
8185,1,RB,7,a,j,b,0,0.667
8185,1,RB,8,b,j,b,1,1.222
8185,1,RB,9,a,j,b,0,0.8029999999999999
8185,1,RB,10,a,d,a,1,2.497
8185,1,RB,11,b,d,a,0,1.0979999999999999
8185,1,RB,12,b,j,b,1,1.476
8185,1,RB,13,a,d,a,1,1.3419999999999999
8185,1,RB,14,b,d,a,0,0.838
8185,1,RB,15,b,j,b,1,1.043
8185,1,RB,16,a,d,a,1,0.943
8185,1,RB,17,a,j,b,0,1.919
8185,1,RB,18,a,d,a,1,1.1520000000000001
8185,1,RB,19,b,j,b,1,0.888
8185,1,RB,20,a,j,b,0,0.6579999999999999
8185,1,RB,21,a,d,a,1,0.7490000000000001
8185,1,RB,22,b,j,b,1,1.2309999999999999
8185,1,RB,23,a,d,a,1,1.034
8185,1,RB,24,a,d,a,1,1.063
8185,1,RB,25,b,j,b,1,0.601
8185,1,RB,26,a,j,b,0,0.7759999999999999
8185,1,RB,27,a,d,a,1,0.703
8185,1,RB,28,b,j,b,1,0.6729999999999999
8185,1,RB,29,b,j,b,1,0.6829999999999999
8185,1,RB,30,a,d,a,1,0.527
8185,1,RB,31,b,d,a,0,1.167
8185,1,RB,32,b,j,b,1,1.126
8185,1,RB,33,a,d,a,1,0.7979999999999999
8185,1,RB,34,a,d,a,1,1.244
8185,1,RB,35,b,j,b,1,0.897
8185,1,RB,36,b,d,a,0,1.058
8185,1,RB,37,a,j,b,0,1.263
8185,1,RB,38,b,d,a,0,0.5760000000000001
8185,1,RB,39,b,j,b,1,0.711
8185,1,RB,40,b,j,b,1,0.602
8185,1,RB,41,a,j,b,0,0.5660000000000001
8185,1,RB,42,b,j,b,1,1.143
8185,1,RB,43,b,d,a,0,0.992
8185,1,RB,44,a,d,a,1,1.22
8185,1,RB,45,a,j,b,0,2.594
8185,1,RB,46,b,j,b,1,1.599
8185,1,RB,47,b,j,b,1,0.932
8185,1,RB,48,a,d,a,1,0.7170000000000001
8185,1,RB,49,b,d,a,0,1.7819999999999998
8185,1,RB,50,a,d,a,1,0.9159999999999999
8185,1,RB,51,a,j,b,0,0.855
8185,1,RB,52,b,j,b,1,0.713
8185,1,RB,53,a,d,a,1,0.6990000000000001
8185,1,RB,54,a,d,a,1,0.5579999999999999
8185,1,RB,55,b,d,a,0,0.7490000000000001
8185,1,RB,56,b,d,a,0,0.5329999999999999
8185,1,RB,57,a,j,b,0,0.446
8185,1,RB,58,b,d,a,0,0.48100000000000004
8185,1,RB,59,b,d,a,0,1.4769999999999999
8185,1,RB,60,a,d,a,1,0.927
8185,1,RB,61,b,d,a,0,0.792
8185,1,RB,62,a,d,a,1,1.574
8185,1,RB,63,a,d,a,1,0.659
8185,1,RB,64,b,d,a,0,0.775
8185,1,RB,65,a,d,a,1,1.494
8185,1,RB,66,b,j,b,1,0.9520000000000001
8185,1,RB,67,a,j,b,0,1.232
8185,1,RB,68,b,d,a,0,0.6679999999999999
8185,1,RB,69,b,d,a,0,0.504
8185,1,RB,70,a,d,a,1,0.9390000000000001
8185,1,RB,71,a,d,a,1,0.619
8185,1,RB,72,a,j,b,0,0.408
8185,1,RB,73,a,d,a,1,1.166
8185,1,RB,74,b,d,a,0,1.804
8185,1,RB,75,b,d,a,0,0.643
8185,1,RB,76,a,d,a,1,0.6779999999999999
8185,1,RB,77,b,j,b,1,0.8170000000000001
8185,1,RB,78,b,j,b,1,0.895
8185,1,RB,79,a,d,a,1,0.736
8185,1,RB,80,a,d,a,1,2.21
8185,2,RB,81,a,d,a,1,0.7020000000000001
8185,2,RB,82,a,d,a,1,0.625
8185,2,RB,83,b,j,b,1,0.74
8185,2,RB,84,b,j,b,1,1.18
8185,2,RB,85,b,d,a,0,0.629
8185,2,RB,86,b,d,a,0,1.296
8185,2,RB,87,a,j,b,0,0.746
8185,2,RB,88,b,d,a,0,0.569
8185,2,RB,89,a,d,a,1,0.609
8185,2,RB,90,a,d,a,1,0.551
8185,2,RB,91,b,j,b,1,0.871
8185,2,RB,92,b,d,a,0,1.186
8185,2,RB,93,a,d,a,1,0.617
8185,2,RB,94,b,d,a,0,0.982
8185,2,RB,95,b,d,a,0,0.46799999999999997
8185,2,RB,96,a,d,a,1,0.633
8185,2,RB,97,a,j,b,0,0.804
8185,2,RB,98,a,d,a,1,0.9790000000000001
8185,2,RB,99,b,d,a,0,1.034
8185,2,RB,100,a,d,a,1,0.701
8185,2,RB,101,a,d,a,1,0.721
8185,2,RB,102,b,j,b,1,0.705
8185,2,RB,103,a,d,a,1,0.6829999999999999
8185,2,RB,104,a,d,a,1,1.119
8185,2,RB,105,b,j,b,1,0.583
8185,2,RB,106,a,d,a,1,0.7020000000000001
8185,2,RB,107,a,j,b,0,0.5920000000000001
8185,2,RB,108,b,j,b,1,0.654
8185,2,RB,109,b,d,a,0,0.579
8185,2,RB,110,a,d,a,1,0.385
8185,2,RB,111,b,j,b,1,1.272
8185,2,RB,112,b,d,a,0,0.611
8185,2,RB,113,a,d,a,1,0.401
8185,2,RB,114,a,j,b,0,0.575
8185,2,RB,115,b,j,b,1,0.982
8185,2,RB,116,b,d,a,0,0.5
8185,2,RB,117,a,d,a,1,0.35700000000000004
8185,2,RB,118,b,j,b,1,0.7170000000000001
8185,2,RB,119,b,d,a,0,0.455
8185,2,RB,120,b,d,a,0,0.418
8185,2,RB,121,a,j,b,0,0.775
8185,2,RB,122,b,d,a,0,0.552
8185,2,RB,123,b,d,a,0,1.015
8185,2,RB,124,a,d,a,1,0.47600000000000003
8185,2,RB,125,a,j,b,0,1.215
8185,2,RB,126,b,j,b,1,0.35600000000000004
8185,2,RB,127,b,d,a,0,0.748
8185,2,RB,128,a,d,a,1,0.268
8185,2,RB,129,b,j,b,1,1.4869999999999999
8185,2,RB,130,a,d,a,1,0.97
8185,2,RB,131,a,j,b,0,0.785
8185,2,RB,132,b,j,b,1,0.29600000000000004
8185,2,RB,133,a,d,a,1,0.642
8185,2,RB,134,a,j,b,0,0.7090000000000001
8185,2,RB,135,b,d,a,0,0.391
8185,2,RB,136,b,d,a,0,0.414
8185,2,RB,137,a,d,a,1,1.205
8185,2,RB,138,b,j,b,1,1.297
8185,2,RB,139,b,d,a,0,0.6509999999999999
8185,2,RB,140,a,d,a,1,0.302
8185,2,RB,141,b,d,a,0,1.0490000000000002
8185,2,RB,142,a,d,a,1,0.9329999999999999
8185,2,RB,143,a,d,a,1,0.941
8185,2,RB,144,b,j,b,1,0.7909999999999999
8185,2,RB,145,a,d,a,1,0.747
8185,2,RB,146,b,j,b,1,0.667
8185,2,RB,147,a,d,a,1,0.84
8185,2,RB,148,b,j,b,1,0.8340000000000001
8185,2,RB,149,b,d,a,0,0.6709999999999999
8185,2,RB,150,a,d,a,1,0.387
8185,2,RB,151,a,d,a,1,0.586
8185,2,RB,152,a,j,b,0,0.337
8185,2,RB,153,a,j,b,0,0.61
8185,2,RB,154,b,d,a,0,0.462
8185,2,RB,155,b,d,a,0,0.426
8185,2,RB,156,a,d,a,1,0.711
8185,2,RB,157,b,d,a,0,1.24
8185,2,RB,158,b,j,b,1,0.644
8185,2,RB,159,a,d,a,1,0.762
8185,2,RB,160,a,d,a,1,1.159
8185,3,RB,161,a,d,a,1,0.767
8185,3,RB,162,a,j,b,0,0.711
8185,3,RB,163,b,d,a,0,0.439
8185,3,RB,164,b,j,b,1,0.894
8185,3,RB,165,b,j,b,1,0.9670000000000001
8185,3,RB,166,b,j,b,1,0.7170000000000001
8185,3,RB,167,a,j,b,0,0.608
8185,3,RB,168,b,j,b,1,0.74
8185,3,RB,169,a,j,b,0,1.061
8185,3,RB,170,a,d,a,1,0.536
8185,3,RB,171,b,j,b,1,0.5920000000000001
8185,3,RB,172,b,j,b,1,0.774
8185,3,RB,173,a,d,a,1,0.693
8185,3,RB,174,b,j,b,1,1.095
8185,3,RB,175,b,d,a,0,0.473
8185,3,RB,176,a,d,a,1,0.748
8185,3,RB,177,a,d,a,1,0.98
8185,3,RB,178,a,d,a,1,1.235
8185,3,RB,179,b,j,b,1,0.662
8185,3,RB,180,a,j,b,0,0.5379999999999999
8185,3,RB,181,a,j,b,0,0.507
8185,3,RB,182,b,j,b,1,0.5870000000000001
8185,3,RB,183,a,d,a,1,0.7709999999999999
8185,3,RB,184,a,d,a,1,0.547
8185,3,RB,185,b,d,a,0,0.569
8185,3,RB,186,a,d,a,1,0.474
8185,3,RB,187,a,j,b,0,0.7959999999999999
8185,3,RB,188,b,d,a,0,0.435
8185,3,RB,189,b,d,a,0,0.384
8185,3,RB,190,a,d,a,1,0.42200000000000004
8185,3,RB,191,b,d,a,0,0.9
8185,3,RB,192,b,d,a,0,0.309
8185,3,RB,193,a,d,a,1,0.5579999999999999
8185,3,RB,194,a,j,b,0,0.6859999999999999
8185,3,RB,195,b,d,a,0,0.409
8185,3,RB,196,b,d,a,0,0.45399999999999996
8185,3,RB,197,a,d,a,1,0.787
8185,3,RB,198,b,j,b,1,0.657
8185,3,RB,199,b,j,b,1,1.0290000000000001
8185,3,RB,200,b,j,b,1,0.569
8185,3,RB,201,a,d,a,1,0.409
8185,3,RB,202,b,j,b,1,0.406
8185,3,RB,203,b,d,a,0,0.612
8185,3,RB,204,a,d,a,1,0.424
8185,3,RB,205,a,j,b,0,0.542
8185,3,RB,206,b,j,b,1,0.639
8185,3,RB,207,b,j,b,1,0.698
8185,3,RB,208,a,d,a,1,0.7
8185,3,RB,209,b,j,b,1,0.486
8185,3,RB,210,a,d,a,1,0.649
8185,3,RB,211,a,d,a,1,0.7170000000000001
8185,3,RB,212,b,d,a,0,0.6940000000000001
8185,3,RB,213,a,d,a,1,0.529
8185,3,RB,214,a,j,b,0,0.45799999999999996
8185,3,RB,215,b,d,a,0,0.542
8185,3,RB,216,b,j,b,1,0.613
8185,3,RB,217,a,j,b,0,0.812
8185,3,RB,218,b,d,a,0,0.537
8185,3,RB,219,b,j,b,1,0.632
8185,3,RB,220,a,d,a,1,0.669
8185,3,RB,221,b,d,a,0,0.617
8185,3,RB,222,a,d,a,1,0.7979999999999999
8185,3,RB,223,a,d,a,1,0.8440000000000001
8185,3,RB,224,b,d,a,0,0.9940000000000001
8185,3,RB,225,a,d,a,1,0.75
8185,3,RB,226,b,j,b,1,0.598
8185,3,RB,227,a,j,b,0,1.357
8185,3,RB,228,b,j,b,1,0.644
8185,3,RB,229,b,j,b,1,0.688
8185,3,RB,230,a,d,a,1,0.754
8185,3,RB,231,a,d,a,1,1.179
8185,3,RB,232,a,d,a,1,0.642
8185,3,RB,233,a,d,a,1,0.893
8185,3,RB,234,b,j,b,1,0.527
8185,3,RB,235,b,d,a,0,0.664
8185,3,RB,236,a,d,a,1,0.41100000000000003
8185,3,RB,237,b,j,b,1,0.905
8185,3,RB,238,b,d,a,0,0.532
8185,3,RB,239,a,d,a,1,1.028
8185,3,RB,240,a,j,b,0,0.456
8161,1,II,1,b,None,None,0,9999.0
8161,1,II,2,b,d,a,0,1.811
8161,1,II,3,a,j,b,0,0.777
8161,1,II,4,b,d,a,0,0.46399999999999997
8161,1,II,5,a,j,b,0,0.442
8161,1,II,6,b,j,b,1,4.231
8161,1,II,7,b,j,b,1,2.9789999999999996
8161,1,II,8,a,j,b,0,2.503
8161,1,II,9,b,j,b,1,1.24
8161,1,II,10,a,d,a,1,0.99
8161,1,II,11,a,d,a,1,2.188
8161,1,II,12,a,j,b,0,0.865
8161,1,II,13,b,d,a,0,0.948
8161,1,II,14,a,d,a,1,0.45299999999999996
8161,1,II,15,b,j,b,1,0.322
8161,1,II,16,b,d,a,0,0.298
8161,1,II,17,a,j,b,0,0.8759999999999999
8161,1,II,18,b,d,a,0,1.639
8161,1,II,19,a,d,a,1,1.002
8161,1,II,20,b,d,a,0,1.304
8161,1,II,21,a,d,a,1,1.097
8161,1,II,22,a,d,a,1,1.268
8161,1,II,23,b,d,a,0,1.025
8161,1,II,24,b,d,a,0,1.148
8161,1,II,25,a,j,b,0,1.325
8161,1,II,26,b,j,b,1,0.836
8161,1,II,27,b,j,b,1,1.329
8161,1,II,28,b,j,b,1,0.665
8161,1,II,29,b,d,a,0,1.237
8161,1,II,30,a,d,a,1,1.139
8161,1,II,31,a,d,a,1,0.7709999999999999
8161,1,II,32,b,d,a,0,1.641
8161,1,II,33,b,j,b,1,1.1320000000000001
8161,1,II,34,b,d,a,0,0.45399999999999996
8161,1,II,35,a,j,b,0,1.5230000000000001
8161,1,II,36,a,j,b,0,0.866
8161,1,II,37,b,d,a,0,0.33399999999999996
8161,1,II,38,a,j,b,0,2.855
8161,1,II,39,a,j,b,0,0.922
8161,1,II,40,b,d,a,0,0.98
8161,1,II,41,a,d,a,1,0.626
8161,1,II,42,a,j,b,0,0.934
8161,1,II,43,b,d,a,0,0.32799999999999996
8161,1,II,44,b,d,a,0,1.393
8161,1,II,45,b,j,b,1,2.694
8161,1,II,46,a,d,a,1,1.335
8161,1,II,47,b,j,b,1,2.224
8161,1,II,48,a,d,a,1,1.827
8161,1,II,49,a,j,b,0,2.609
8161,1,II,50,b,j,b,1,0.8370000000000001
8161,1,II,51,b,d,a,0,0.953
8161,1,II,52,b,j,b,1,0.345
8161,1,II,53,a,j,b,0,1.0659999999999998
8161,1,II,54,a,d,a,1,0.742
8161,1,II,55,a,d,a,1,0.7170000000000001
8161,1,II,56,a,d,a,1,1.014
8161,1,II,57,a,j,b,0,0.972
8161,1,II,58,a,d,a,1,0.36200000000000004
8161,1,II,59,b,d,a,0,1.7630000000000001
8161,1,II,60,a,j,b,0,0.336
8161,1,II,61,b,d,a,0,0.32299999999999995
8161,1,II,62,b,d,a,0,0.276
8161,1,II,63,a,j,b,0,0.375
8161,1,II,64,a,d,a,1,1.349
8161,1,II,65,a,d,a,1,0.39799999999999996
8161,1,II,66,a,d,a,1,0.33899999999999997
8161,1,II,67,a,d,a,1,0.772
8161,1,II,68,b,d,a,0,0.46
8161,1,II,69,b,d,a,0,1.52
8161,1,II,70,a,j,b,0,0.32899999999999996
8161,1,II,71,b,j,b,1,0.24100000000000002
8161,1,II,72,b,d,a,0,1.845
8161,1,II,73,a,j,b,0,1.401
8161,1,II,74,b,d,a,0,0.5660000000000001
8161,1,II,75,a,j,b,0,0.823
8161,1,II,76,b,j,b,1,1.212
8161,1,II,77,a,d,a,1,1.632
8161,1,II,78,a,j,b,0,0.981
8161,1,II,79,b,j,b,1,1.13
8161,1,II,80,b,j,b,1,0.94
8161,2,II,81,b,j,b,1,0.772
8161,2,II,82,b,d,a,0,0.9159999999999999
8161,2,II,83,a,j,b,0,1.085
8161,2,II,84,b,d,a,0,0.462
8161,2,II,85,a,j,b,0,1.2990000000000002
8161,2,II,86,b,d,a,0,0.349
8161,2,II,87,b,d,a,0,0.32299999999999995
8161,2,II,88,a,d,a,1,0.11699999999999999
8161,2,II,89,b,j,b,1,0.9990000000000001
8161,2,II,90,a,d,a,1,1.797
8161,2,II,91,a,d,a,1,2.099
8161,2,II,92,a,d,a,1,0.972
8161,2,II,93,b,d,a,0,0.852
8161,2,II,94,a,j,b,0,1.422
8161,2,II,95,b,d,a,0,0.7170000000000001
8161,2,II,96,b,j,b,1,0.8690000000000001
8161,2,II,97,a,j,b,0,1.04
8161,2,II,98,b,d,a,0,0.309
8161,2,II,99,a,d,a,1,0.871
8161,2,II,100,b,d,a,0,0.777
8161,2,II,101,a,j,b,0,0.24
8161,2,II,102,a,j,b,0,0.805
8161,2,II,103,b,d,a,0,0.53
8161,2,II,104,b,d,a,0,0.907
8161,2,II,105,a,d,a,1,0.963
8161,2,II,106,b,j,b,1,1.716
8161,2,II,107,b,j,b,1,0.8690000000000001
8161,2,II,108,b,j,b,1,0.511
8161,2,II,109,b,j,b,1,0.914
8161,2,II,110,a,j,b,0,0.675
8161,2,II,111,a,j,b,0,3.7260000000000004
8161,2,II,112,b,j,b,1,0.574
8161,2,II,113,b,d,a,0,0.701
8161,2,II,114,b,j,b,1,2.35
8161,2,II,115,a,j,b,0,1.278
8161,2,II,116,a,j,b,0,1.84
8161,2,II,117,b,j,b,1,1.1
8161,2,II,118,a,j,b,0,2.133
8161,2,II,119,a,j,b,0,0.982
8161,2,II,120,b,j,b,1,0.445
8161,2,II,121,a,d,a,1,0.514
8161,2,II,122,a,d,a,1,0.289
8161,2,II,123,b,j,b,1,0.3
8161,2,II,124,b,d,a,0,0.366
8161,2,II,125,b,d,a,0,0.519
8161,2,II,126,a,j,b,0,0.264
8161,2,II,127,b,d,a,0,2.347
8161,2,II,128,a,d,a,1,0.276
8161,2,II,129,a,j,b,0,0.27699999999999997
8161,2,II,130,b,j,b,1,1.4169999999999998
8161,2,II,131,b,d,a,0,1.286
8161,2,II,132,b,d,a,0,0.32799999999999996
8161,2,II,133,a,j,b,0,0.465
8161,2,II,134,a,j,b,0,0.877
8161,2,II,135,a,d,a,1,0.311
8161,2,II,136,a,j,b,0,1.129
8161,2,II,137,a,d,a,1,0.424
8161,2,II,138,a,d,a,1,0.6940000000000001
8161,2,II,139,b,d,a,0,0.648
8161,2,II,140,a,d,a,1,1.365
8161,2,II,141,b,d,a,0,0.436
8161,2,II,142,b,j,b,1,0.648
8161,2,II,143,a,j,b,0,0.395
8161,2,II,144,a,d,a,1,0.386
8161,2,II,145,a,d,a,1,1.89
8161,2,II,146,a,j,b,0,1.594
8161,2,II,147,a,d,a,1,0.114
8161,2,II,148,b,d,a,0,0.763
8161,2,II,149,b,j,b,1,4.69
8161,2,II,150,a,d,a,1,1.964
8161,2,II,151,b,d,a,0,1.0170000000000001
8161,2,II,152,b,d,a,0,0.551
8161,2,II,153,a,j,b,0,0.29600000000000004
8161,2,II,154,b,j,b,1,1.121
8161,2,II,155,a,j,b,0,1.811
8161,2,II,156,b,d,a,0,0.34299999999999997
8161,2,II,157,a,d,a,1,0.424
8161,2,II,158,a,j,b,0,0.813
8161,2,II,159,b,d,a,0,1.402
8161,2,II,160,b,d,a,0,1.016
8161,3,II,161,b,d,a,0,0.415
8161,3,II,162,b,d,a,0,0.34700000000000003
8161,3,II,163,a,d,a,1,0.3
8161,3,II,164,b,j,b,1,1.694
8161,3,II,165,a,j,b,0,0.759
8161,3,II,166,b,j,b,1,0.55
8161,3,II,167,b,j,b,1,0.8540000000000001
8161,3,II,168,a,d,a,1,3.483
8161,3,II,169,b,j,b,1,1.892
8161,3,II,170,a,d,a,1,0.75
8161,3,II,171,a,j,b,0,0.973
8161,3,II,172,a,j,b,0,1.085
8161,3,II,173,b,d,a,0,0.43799999999999994
8161,3,II,174,a,j,b,0,0.436
8161,3,II,175,b,j,b,1,0.728
8161,3,II,176,b,j,b,1,2.0180000000000002
8161,3,II,177,a,j,b,0,0.622
8161,3,II,178,b,d,a,0,0.10800000000000001
8161,3,II,179,a,j,b,0,0.268
8161,3,II,180,b,d,a,0,0.368
8161,3,II,181,a,j,b,0,0.9840000000000001
8161,3,II,182,a,j,b,0,0.958
8161,3,II,183,b,j,b,1,0.95
8161,3,II,184,b,j,b,1,1.006
8161,3,II,185,a,d,a,1,0.523
8161,3,II,186,b,d,a,0,0.645
8161,3,II,187,b,j,b,1,0.32
8161,3,II,188,b,j,b,1,0.37
8161,3,II,189,b,j,b,1,0.753
8161,3,II,190,a,j,b,0,0.44299999999999995
8161,3,II,191,a,d,a,1,0.493
8161,3,II,192,b,d,a,0,1.415
8161,3,II,193,b,d,a,0,0.83
8161,3,II,194,b,j,b,1,0.37799999999999995
8161,3,II,195,a,j,b,0,0.736
8161,3,II,196,a,d,a,1,0.706
8161,3,II,197,b,j,b,1,0.5720000000000001
8161,3,II,198,a,d,a,1,0.778
8161,3,II,199,a,j,b,0,0.39399999999999996
8161,3,II,200,b,d,a,0,0.34299999999999997
8161,3,II,201,a,j,b,0,0.28
8161,3,II,202,a,j,b,0,0.331
8161,3,II,203,b,d,a,0,0.337
8161,3,II,204,b,j,b,1,0.836
8161,3,II,205,b,d,a,0,1.29
8161,3,II,206,a,j,b,0,0.25
8161,3,II,207,b,j,b,1,0.272
8161,3,II,208,a,d,a,1,0.156
8161,3,II,209,a,j,b,0,0.139
8161,3,II,210,b,d,a,0,0.948
8161,3,II,211,b,d,a,0,0.37200000000000005
8161,3,II,212,b,j,b,1,2.66
8161,3,II,213,a,j,b,0,0.494
8161,3,II,214,a,d,a,1,0.35200000000000004
8161,3,II,215,a,j,b,0,0.9670000000000001
8161,3,II,216,a,d,a,1,1.1440000000000001
8161,3,II,217,a,d,a,1,0.95
8161,3,II,218,a,d,a,1,0.727
8161,3,II,219,b,j,b,1,0.7759999999999999
8161,3,II,220,a,j,b,0,2.845
8161,3,II,221,b,j,b,1,1.682
8161,3,II,222,b,d,a,0,0.955
8161,3,II,223,a,j,b,0,1.355
8161,3,II,224,a,j,b,0,1.954
8161,3,II,225,a,d,a,1,0.7879999999999999
8161,3,II,226,a,d,a,1,0.77
8161,3,II,227,a,d,a,1,0.6729999999999999
8161,3,II,228,b,d,a,0,0.875
8161,3,II,229,b,d,a,0,1.054
8161,3,II,230,a,rctrl,invalid key,0,-0.21600000000000003
8161,3,II,231,b,j,b,1,0.9279999999999999
8161,3,II,232,b,j,b,1,0.9690000000000001
8161,3,II,233,a,d,a,1,1.112
8161,3,II,234,b,d,a,0,2.665
8161,3,II,235,a,j,b,0,0.35700000000000004
8161,3,II,236,b,d,a,0,0.41200000000000003
8161,3,II,237,a,j,b,0,0.27399999999999997
8161,3,II,238,a,j,b,0,0.469
8161,3,II,239,b,j,b,1,0.903
8161,3,II,240,b,j,b,1,1.225
8162,1,II,1,a,None,None,0,9999.0
8162,1,II,2,a,None,None,0,9999.0
8162,1,II,3,b,None,None,0,9999.0
8162,1,II,4,b,d,a,0,-0.214
8162,1,II,5,a,j,b,0,2.335
8162,1,II,6,b,space,invalid key,0,1.055
8162,1,II,7,b,d,a,0,1.196
8162,1,II,8,a,j,b,0,0.44799999999999995
8162,1,II,9,b,a,invalid key,0,2.373
8162,1,II,10,a,d,a,1,1.41
8162,1,II,11,b,d,a,0,2.384
8162,1,II,12,a,j,b,0,-0.214
8162,1,II,13,a,d,a,1,0.8690000000000001
8162,1,II,14,b,j,b,1,2.968
8162,1,II,15,b,d,a,0,2.5340000000000003
8162,1,II,16,b,j,b,1,1.1179999999999999
8162,1,II,17,a,j,b,0,1.784
8162,1,II,18,a,d,a,1,-0.215
8162,1,II,19,a,None,None,0,9999.0
8162,1,II,20,a,d,a,1,-0.214
8162,1,II,21,b,d,a,0,4.039
8162,1,II,22,a,j,b,0,1.45
8162,1,II,23,b,d,a,0,0.374
8162,1,II,24,b,j,b,1,-0.214
8162,1,II,25,b,d,a,0,1.163
8162,1,II,26,a,j,b,0,-0.20600000000000002
8162,1,II,27,a,d,a,1,1.225
8162,1,II,28,a,j,b,0,-0.217
8162,1,II,29,a,d,a,1,3.036
8162,1,II,30,a,d,a,1,1.0390000000000001
8162,1,II,31,b,d,a,0,1.6680000000000001
8162,1,II,32,a,j,b,0,-0.21600000000000003
8162,1,II,33,b,j,b,1,1.685
8162,1,II,34,b,d,a,0,0.895
8162,1,II,35,a,j,b,0,0.8340000000000001
8162,1,II,36,b,d,a,0,-0.214
8162,1,II,37,a,d,a,1,0.7959999999999999
8162,1,II,38,a,j,b,0,-0.213
8162,1,II,39,a,d,a,1,1.64
8162,1,II,40,b,j,b,1,1.181
8162,1,II,41,a,d,a,1,-0.213
8162,1,II,42,b,d,a,0,0.7929999999999999
8162,1,II,43,b,j,b,1,-0.214
8162,1,II,44,a,d,a,1,1.037
8162,1,II,45,a,d,a,1,0.9129999999999999
8162,1,II,46,a,j,b,0,-0.21600000000000003
8162,1,II,47,a,d,a,1,0.688
8162,1,II,48,b,j,b,1,-0.21600000000000003
8162,1,II,49,a,d,a,1,4.666
8162,1,II,50,a,j,b,0,-0.214
8162,1,II,51,b,d,a,0,1.185
8162,1,II,52,b,j,b,1,-0.214
8162,1,II,53,a,j,b,0,0.758
8162,1,II,54,b,d,a,0,-0.21600000000000003
8162,1,II,55,a,d,a,1,0.851
8162,1,II,56,a,d,a,1,1.617
8162,1,II,57,a,j,b,0,-0.214
8162,1,II,58,b,d,a,0,1.163
8162,1,II,59,b,j,b,1,-0.214
8162,1,II,60,b,j,b,1,2.241
8162,1,II,61,a,j,b,0,0.988
8162,1,II,62,a,d,a,1,0.922
8162,1,II,63,a,j,b,0,1.7719999999999998
8162,1,II,64,a,d,a,1,-0.217
8162,1,II,65,b,j,b,1,1.8559999999999999
8162,1,II,66,b,j,b,1,1.196
8162,1,II,67,b,d,a,0,1.474
8162,1,II,68,b,j,b,1,-0.214
8162,1,II,69,b,j,b,1,1.21
8162,1,II,70,b,d,a,0,1.984
8162,1,II,71,b,j,b,1,0.42200000000000004
8162,1,II,72,a,d,a,1,-0.214
8162,1,II,73,b,d,a,0,0.882
8162,1,II,74,a,d,a,1,0.861
8162,1,II,75,b,j,b,1,-0.213
8162,1,II,76,a,None,None,0,9999.0
8162,1,II,77,b,d,a,0,-0.214
8162,1,II,78,b,j,b,1,0.89
8162,1,II,79,b,d,a,0,-0.214
8162,1,II,80,b,d,a,0,1.219
8162,2,II,81,a,j,b,0,-0.214
8162,2,II,82,a,d,a,1,1.564
8162,2,II,83,b,d,a,0,0.94
8162,2,II,84,b,d,a,0,0.484
8162,2,II,85,a,j,b,0,0.736
8162,2,II,86,b,d,a,0,0.32
8162,2,II,87,b,j,b,1,-0.21600000000000003
8162,2,II,88,a,d,a,1,3.535
8162,2,II,89,b,d,a,0,1.038
8162,2,II,90,a,j,b,0,1.9080000000000001
8162,2,II,91,b,j,b,1,0.8909999999999999
8162,2,II,92,a,d,a,1,-0.213
8162,2,II,93,a,d,a,1,1.6369999999999998
8162,2,II,94,b,j,b,1,1.345
8162,2,II,95,b,None,None,0,9999.0
8162,2,II,96,b,d,a,0,-0.21600000000000003
8162,2,II,97,a,d,a,1,2.427
8162,2,II,98,a,d,a,1,1.12
8162,2,II,99,a,d,a,1,0.752
8162,2,II,100,a,d,a,1,1.193
8162,2,II,101,b,d,a,0,0.8370000000000001
8162,2,II,102,a,d,a,1,1.6680000000000001
8162,2,II,103,b,d,a,0,1.261
8162,2,II,104,b,d,a,0,1.2819999999999998
8162,2,II,105,b,j,b,1,2.9330000000000003
8162,2,II,106,a,d,a,1,-0.214
8162,2,II,107,a,d,a,1,2.187
8162,2,II,108,a,j,b,0,-0.209
8162,2,II,109,a,d,a,1,1.102
8162,2,II,110,a,j,b,0,3.1519999999999997
8162,2,II,111,b,d,a,0,0.368
8162,2,II,112,a,j,b,0,-0.214
8162,2,II,113,b,j,b,1,1.334
8162,2,II,114,b,j,b,1,0.8759999999999999
8162,2,II,115,a,j,b,0,0.768
8162,2,II,116,b,d,a,0,0.496
8162,2,II,117,a,d,a,1,0.722
8162,2,II,118,a,j,b,0,-0.213
8162,2,II,119,a,j,b,0,1.986
8162,2,II,120,b,d,a,0,-0.213
8162,2,II,121,a,j,b,0,2.55
8162,2,II,122,b,d,a,0,0.389
8162,2,II,123,b,j,b,1,-0.214
8162,2,II,124,a,d,a,1,2.5540000000000003
8162,2,II,125,a,j,b,0,-0.214
8162,2,II,126,a,d,a,1,3.951
8162,2,II,127,a,d,a,1,3.071
8162,2,II,128,b,j,b,1,-0.213
8162,2,II,129,a,d,a,1,1.128
8162,2,II,130,a,d,a,1,2.647
8162,2,II,131,b,d,a,0,1.3719999999999999
8162,2,II,132,b,d,a,0,1.113
8162,2,II,133,a,j,b,0,0.94
8162,2,II,134,b,d,a,0,-0.217
8162,2,II,135,a,d,a,1,0.858
8162,2,II,136,a,d,a,1,2.4530000000000003
8162,2,II,137,a,d,a,1,1.712
8162,2,II,138,b,j,b,1,-0.214
8162,2,II,139,b,d,a,0,1.271
8162,2,II,140,b,j,b,1,-0.214
8162,2,II,141,a,d,a,1,1.28
8162,2,II,142,a,d,a,1,1.044
8162,2,II,143,a,j,b,0,-0.214
8162,2,II,144,a,d,a,1,1.014
8162,2,II,145,b,d,a,0,0.7559999999999999
8162,2,II,146,b,j,b,1,2.98
8162,2,II,147,b,d,a,0,0.882
8162,2,II,148,b,j,b,1,1.58
8162,2,II,149,b,d,a,0,-0.214
8162,2,II,150,b,d,a,0,3.761
8162,2,II,151,b,j,b,1,2.8939999999999997
8162,2,II,152,a,d,a,1,-0.215
8162,2,II,153,b,j,b,1,1.014
8162,2,II,154,a,d,a,1,-0.209
8162,2,II,155,b,d,a,0,3.362
8162,2,II,156,a,d,a,1,0.887
8162,2,II,157,b,j,b,1,3.97
8162,2,II,158,b,d,a,0,1.337
8162,2,II,159,b,d,a,0,0.8590000000000001
8162,2,II,160,b,j,b,1,1.125
8162,3,II,161,a,d,a,1,3.3339999999999996
8162,3,II,162,a,d,a,1,1.325
8162,3,II,163,b,d,a,0,1.195
8162,3,II,164,b,j,b,1,0.9309999999999999
8162,3,II,165,a,d,a,1,1.173
8162,3,II,166,b,d,a,0,1.7790000000000001
8162,3,II,167,b,d,a,0,1.074
8162,3,II,168,a,d,a,1,1.052
8162,3,II,169,b,j,b,1,0.8079999999999999
8162,3,II,170,a,j,b,0,2.197
8162,3,II,171,b,d,a,0,0.371
8162,3,II,172,a,j,b,0,2.946
8162,3,II,173,a,j,b,0,2.802
8162,3,II,174,b,j,b,1,1.087
8162,3,II,175,b,d,a,0,1.057
8162,3,II,176,b,d,a,0,1.021
8162,3,II,177,a,d,a,1,0.6579999999999999
8162,3,II,178,a,d,a,1,2.8289999999999997
8162,3,II,179,a,d,a,1,0.993
8162,3,II,180,a,j,b,0,1.056
8162,3,II,181,b,j,b,1,1.5959999999999999
8162,3,II,182,a,j,b,0,1.929
8162,3,II,183,b,d,a,0,1.673
8162,3,II,184,b,d,a,0,2.051
8162,3,II,185,b,j,b,1,4.047
8162,3,II,186,a,d,a,1,2.105
8162,3,II,187,a,d,a,1,0.98
8162,3,II,188,a,j,b,0,4.6339999999999995
8162,3,II,189,a,j,b,0,1.661
8162,3,II,190,a,j,b,0,1.633
8162,3,II,191,b,d,a,0,-0.214
8162,3,II,192,a,d,a,1,2.5469999999999997
8162,3,II,193,b,j,b,1,-0.214
8162,3,II,194,b,j,b,1,3.545
8162,3,II,195,a,j,b,0,1.248
8162,3,II,196,b,j,b,1,3.428
8162,3,II,197,a,d,a,1,1.383
8162,3,II,198,a,j,b,0,1.926
8162,3,II,199,a,j,b,0,1.735
8162,3,II,200,b,j,b,1,0.6940000000000001
8162,3,II,201,a,d,a,1,0.5920000000000001
8162,3,II,202,b,j,b,1,0.47
8162,3,II,203,b,d,a,0,-0.214
8162,3,II,204,a,j,b,0,0.36
8162,3,II,205,a,d,a,1,0.303
8162,3,II,206,a,d,a,1,0.401
8162,3,II,207,a,j,b,0,-0.213
8162,3,II,208,b,j,b,1,0.606
8162,3,II,209,a,d,a,1,0.396
8162,3,II,210,a,j,b,0,0.522
8162,3,II,211,b,d,a,0,-0.213
8162,3,II,212,b,j,b,1,0.386
8162,3,II,213,a,d,a,1,0.34600000000000003
8162,3,II,214,b,None,None,0,9999.0
8162,3,II,215,a,d,a,1,0.789
8162,3,II,216,a,j,b,0,-0.214
8162,3,II,217,a,j,b,0,1.271
8162,3,II,218,b,j,b,1,0.35700000000000004
8162,3,II,219,b,d,a,0,0.37200000000000005
8162,3,II,220,b,d,a,0,0.466
8162,3,II,221,a,j,b,0,2.302
8162,3,II,222,a,d,a,1,0.36700000000000005
8162,3,II,223,a,d,a,1,0.335
8162,3,II,224,a,j,b,0,-0.214
8162,3,II,225,b,j,b,1,0.342
8162,3,II,226,b,j,b,1,1.15
8162,3,II,227,b,j,b,1,0.581
8162,3,II,228,b,j,b,1,0.478
8162,3,II,229,b,j,b,1,0.32799999999999996
8162,3,II,230,b,j,b,1,0.353
8162,3,II,231,b,j,b,1,0.386
8162,3,II,232,a,j,b,0,0.32799999999999996
8162,3,II,233,b,d,a,0,1.111
8162,3,II,234,a,j,b,0,0.322
8162,3,II,235,b,j,b,1,0.6920000000000001
8162,3,II,236,a,j,b,0,0.27699999999999997
8162,3,II,237,b,j,b,1,0.24
8162,3,II,238,b,j,b,1,0.429
8162,3,II,239,b,j,b,1,0.41700000000000004
8162,3,II,240,b,j,b,1,0.33399999999999996
8185,1,II,1,a,d,a,1,2.928
8185,1,II,2,b,d,a,0,0.977
8185,1,II,3,b,d,a,0,1.119
8185,1,II,4,a,j,b,0,0.617
8185,1,II,5,b,d,a,0,0.519
8185,1,II,6,a,j,b,0,1.1179999999999999
8185,1,II,7,a,d,a,1,1.048
8185,1,II,8,b,d,a,0,0.956
8185,1,II,9,a,j,b,0,0.588
8185,1,II,10,a,j,b,0,1.331
8185,1,II,11,a,d,a,1,0.627
8185,1,II,12,b,j,b,1,0.8079999999999999
8185,1,II,13,a,j,b,0,0.645
8185,1,II,14,b,j,b,1,0.737
8185,1,II,15,b,j,b,1,0.7859999999999999
8185,1,II,16,b,d,a,0,0.745
8185,1,II,17,b,j,b,1,0.92
8185,1,II,18,b,d,a,0,1.042
8185,1,II,19,a,d,a,1,1.021
8185,1,II,20,b,j,b,1,0.899
8185,1,II,21,a,d,a,1,0.965
8185,1,II,22,a,d,a,1,0.748
8185,1,II,23,a,j,b,0,0.6920000000000001
8185,1,II,24,a,j,b,0,0.7340000000000001
8185,1,II,25,b,j,b,1,0.83
8185,1,II,26,b,j,b,1,0.541
8185,1,II,27,a,j,b,0,0.643
8185,1,II,28,b,d,a,0,0.695
8185,1,II,29,b,j,b,1,0.579
8185,1,II,30,a,j,b,0,1.137
8185,1,II,31,b,j,b,1,0.753
8185,1,II,32,a,d,a,1,0.69
8185,1,II,33,a,d,a,1,0.899
8185,1,II,34,a,j,b,0,0.494
8185,1,II,35,a,d,a,1,1.095
8185,1,II,36,b,j,b,1,0.9470000000000001
8185,1,II,37,a,j,b,0,0.731
8185,1,II,38,b,j,b,1,0.858
8185,1,II,39,a,j,b,0,1.1420000000000001
8185,1,II,40,b,d,a,0,0.599
8185,1,II,41,a,d,a,1,0.7559999999999999
8185,1,II,42,b,d,a,0,0.693
8185,1,II,43,b,j,b,1,0.6459999999999999
8185,1,II,44,a,j,b,0,0.593
8185,1,II,45,a,j,b,0,0.624
8185,1,II,46,b,d,a,0,0.469
8185,1,II,47,a,d,a,1,0.536
8185,1,II,48,b,j,b,1,0.545
8185,1,II,49,b,d,a,0,1.321
8185,1,II,50,b,d,a,0,0.825
8185,1,II,51,a,j,b,0,0.423
8185,1,II,52,b,j,b,1,0.6940000000000001
8185,1,II,53,b,d,a,0,0.583
8185,1,II,54,a,d,a,1,1.087
8185,1,II,55,b,d,a,0,1.6
8185,1,II,56,a,d,a,1,0.718
8185,1,II,57,a,j,b,0,1.024
8185,1,II,58,b,d,a,0,0.41200000000000003
8185,1,II,59,a,d,a,1,0.9059999999999999
8185,1,II,60,a,d,a,1,0.754
8185,1,II,61,a,j,b,0,0.9229999999999999
8185,1,II,62,b,j,b,1,1.012
8185,1,II,63,a,d,a,1,0.785
8185,1,II,64,b,j,b,1,1.952
8185,1,II,65,a,d,a,1,0.775
8185,1,II,66,b,d,a,0,0.902
8185,1,II,67,a,d,a,1,0.9359999999999999
8185,1,II,68,b,j,b,1,1.281
8185,1,II,69,b,j,b,1,0.619
8185,1,II,70,a,j,b,0,0.792
8185,1,II,71,b,d,a,0,0.63
8185,1,II,72,b,d,a,0,0.547
8185,1,II,73,a,d,a,1,0.514
8185,1,II,74,b,d,a,0,0.58
8185,1,II,75,a,j,b,0,0.7390000000000001
8185,1,II,76,b,d,a,0,0.715
8185,1,II,77,b,d,a,0,0.588
8185,1,II,78,a,d,a,1,0.509
8185,1,II,79,b,d,a,0,0.5479999999999999
8185,1,II,80,a,d,a,1,0.317
8185,2,II,81,a,j,b,0,0.494
8185,2,II,82,b,d,a,0,0.48100000000000004
8185,2,II,83,b,d,a,0,0.42700000000000005
8185,2,II,84,a,d,a,1,0.44799999999999995
8185,2,II,85,b,j,b,1,0.6779999999999999
8185,2,II,86,a,d,a,1,0.599
8185,2,II,87,a,j,b,0,1.2770000000000001
8185,2,II,88,b,d,a,0,0.47100000000000003
8185,2,II,89,a,d,a,1,0.363
8185,2,II,90,a,d,a,1,0.499
8185,2,II,91,a,d,a,1,1.182
8185,2,II,92,b,j,b,1,0.7709999999999999
8185,2,II,93,a,j,b,0,0.963
8185,2,II,94,b,d,a,0,0.48100000000000004
8185,2,II,95,b,d,a,0,0.261
8185,2,II,96,b,d,a,0,-0.215
8185,2,II,97,b,d,a,0,0.511
8185,2,II,98,b,j,b,1,1.023
8185,2,II,99,a,d,a,1,0.677
8185,2,II,100,b,d,a,0,0.713
8185,2,II,101,a,d,a,1,0.48
8185,2,II,102,a,j,b,0,0.6679999999999999
8185,2,II,103,a,d,a,1,0.72
8185,2,II,104,a,d,a,1,0.672
8185,2,II,105,b,d,a,0,0.9790000000000001
8185,2,II,106,b,j,b,1,0.5539999999999999
8185,2,II,107,a,d,a,1,0.521
8185,2,II,108,b,d,a,0,0.883
8185,2,II,109,b,d,a,0,0.502
8185,2,II,110,a,d,a,1,1.584
8185,2,II,111,b,d,a,0,1.415
8185,2,II,112,a,j,b,0,0.45899999999999996
8185,2,II,113,a,d,a,1,0.519
8185,2,II,114,a,j,b,0,1.153
8185,2,II,115,a,d,a,1,0.44799999999999995
8185,2,II,116,b,j,b,1,1.173
8185,2,II,117,a,d,a,1,0.858
8185,2,II,118,b,j,b,1,0.8059999999999999
8185,2,II,119,a,j,b,0,1.021
8185,2,II,120,b,d,a,0,0.537
8185,2,II,121,a,d,a,1,0.698
8185,2,II,122,b,d,a,0,1.4369999999999998
8185,2,II,123,b,j,b,1,0.992
8185,2,II,124,a,d,a,1,0.726
8185,2,II,125,a,d,a,1,1.15
8185,2,II,126,b,j,b,1,0.575
8185,2,II,127,a,d,a,1,0.925
8185,2,II,128,b,d,a,0,0.406
8185,2,II,129,b,d,a,0,0.828
8185,2,II,130,b,d,a,0,0.865
8185,2,II,131,a,d,a,1,0.292
8185,2,II,132,b,j,b,1,0.7979999999999999
8185,2,II,133,b,d,a,0,1.171
8185,2,II,134,a,d,a,1,1.043
8185,2,II,135,b,j,b,1,1.359
8185,2,II,136,a,d,a,1,0.9740000000000001
8185,2,II,137,a,d,a,1,0.9890000000000001
8185,2,II,138,b,j,b,1,1.3230000000000002
8185,2,II,139,a,d,a,1,1.963
8185,2,II,140,a,d,a,1,0.7859999999999999
8185,2,II,141,a,d,a,1,0.833
8185,2,II,142,b,d,a,0,0.773
8185,2,II,143,a,d,a,1,0.7959999999999999
8185,2,II,144,b,j,b,1,0.794
8185,2,II,145,a,j,b,0,1.392
8185,2,II,146,b,d,a,0,0.5820000000000001
8185,2,II,147,a,d,a,1,0.573
8185,2,II,148,b,d,a,0,0.9229999999999999
8185,2,II,149,b,d,a,0,0.644
8185,2,II,150,a,d,a,1,0.37
8185,2,II,151,b,j,b,1,0.5760000000000001
8185,2,II,152,b,d,a,0,0.614
8185,2,II,153,a,d,a,1,0.292
8185,2,II,154,b,d,a,0,0.733
8185,2,II,155,a,d,a,1,0.318
8185,2,II,156,b,d,a,0,0.977
8185,2,II,157,b,d,a,0,0.431
8185,2,II,158,a,d,a,1,0.34700000000000003
8185,2,II,159,b,j,b,1,0.516
8185,2,II,160,a,j,b,0,0.868
8185,3,II,161,a,d,a,1,0.321
8185,3,II,162,b,d,a,0,0.682
8185,3,II,163,b,d,a,0,0.364
8185,3,II,164,a,d,a,1,0.6759999999999999
8185,3,II,165,b,d,a,0,0.767
8185,3,II,166,a,j,b,0,1.774
8185,3,II,167,a,j,b,0,1.686
8185,3,II,168,b,d,a,0,1.439
8185,3,II,169,a,d,a,1,0.42700000000000005
8185,3,II,170,a,d,a,1,0.728
8185,3,II,171,a,d,a,1,0.584
8185,3,II,172,b,j,b,1,0.9279999999999999
8185,3,II,173,a,j,b,0,0.799
8185,3,II,174,b,d,a,0,2.086
8185,3,II,175,b,d,a,0,0.256
8185,3,II,176,b,d,a,0,0.251
8185,3,II,177,b,d,a,0,0.28
8185,3,II,178,b,j,b,1,0.34
8185,3,II,179,a,d,a,1,0.762
8185,3,II,180,b,d,a,0,1.2590000000000001
8185,3,II,181,a,j,b,0,0.478
8185,3,II,182,a,d,a,1,0.752
8185,3,II,183,a,d,a,1,1.4240000000000002
8185,3,II,184,a,d,a,1,1.915
8185,3,II,185,b,j,b,1,0.525
8185,3,II,186,b,d,a,0,1.1840000000000002
8185,3,II,187,a,j,b,0,1.58
8185,3,II,188,b,d,a,0,1.0590000000000002
8185,3,II,189,b,j,b,1,1.6219999999999999
8185,3,II,190,a,j,b,0,2.195
8185,3,II,191,b,d,a,0,0.56
8185,3,II,192,a,d,a,1,0.46399999999999997
8185,3,II,193,a,j,b,0,0.562
8185,3,II,194,a,d,a,1,0.306
8185,3,II,195,a,d,a,1,0.708
8185,3,II,196,b,j,b,1,1.141
8185,3,II,197,a,d,a,1,1.485
8185,3,II,198,b,j,b,1,1.992
8185,3,II,199,a,d,a,1,1.381
8185,3,II,200,b,d,a,0,0.883
8185,3,II,201,a,j,b,0,2.055
8185,3,II,202,b,j,b,1,1.09
8185,3,II,203,b,j,b,1,0.7879999999999999
8185,3,II,204,a,d,a,1,1.251
8185,3,II,205,a,d,a,1,0.742
8185,3,II,206,b,j,b,1,0.958
8185,3,II,207,a,d,a,1,1.4369999999999998
8185,3,II,208,b,j,b,1,1.081
8185,3,II,209,b,d,a,0,1.5319999999999998
8185,3,II,210,b,j,b,1,0.821
8185,3,II,211,a,d,a,1,1.435
8185,3,II,212,b,d,a,0,1.383
8185,3,II,213,b,j,b,1,1.262
8185,3,II,214,a,d,a,1,0.968
8185,3,II,215,b,j,b,1,1.28
8185,3,II,216,a,d,a,1,1.2819999999999998
8185,3,II,217,a,j,b,0,1.006
8185,3,II,218,b,d,a,0,0.8740000000000001
8185,3,II,219,a,d,a,1,0.757
8185,3,II,220,a,d,a,1,1.061
8185,3,II,221,a,j,b,0,0.848
8185,3,II,222,b,j,b,1,0.9159999999999999
8185,3,II,223,a,d,a,1,0.828
8185,3,II,224,b,d,a,0,0.77
8185,3,II,225,a,d,a,1,0.6579999999999999
8185,3,II,226,b,j,b,1,0.7959999999999999
8185,3,II,227,a,d,a,1,0.7859999999999999
8185,3,II,228,b,j,b,1,0.706
8185,3,II,229,b,j,b,1,0.7859999999999999
8185,3,II,230,a,d,a,1,0.946
8185,3,II,231,b,j,b,1,0.722
8185,3,II,232,b,j,b,1,0.899
8185,3,II,233,a,d,a,1,0.6459999999999999
8185,3,II,234,b,j,b,1,0.737
8185,3,II,235,a,d,a,1,0.626
8185,3,II,236,b,j,b,1,0.5820000000000001
8185,3,II,237,b,j,b,1,0.684
8185,3,II,238,a,j,b,0,0.9520000000000001
8185,3,II,239,b,j,b,1,0.68
8185,3,II,240,a,j,b,0,0.69
8168,1,RB,1,b,d,a,0,1.331
8168,1,RB,2,a,d,a,1,0.594
8168,1,RB,3,a,d,a,1,0.713
8168,1,RB,4,a,j,b,0,0.674
8168,1,RB,5,a,d,a,1,0.853
8168,1,RB,6,b,d,a,0,0.81
8168,1,RB,7,b,d,a,0,0.693
8168,1,RB,8,a,j,b,0,0.312
8168,1,RB,9,b,d,a,0,-0.046
8168,1,RB,10,a,d,a,1,0.449
8168,1,RB,11,a,j,b,0,0.732
8168,1,RB,12,a,d,a,1,1.077
8168,1,RB,13,a,d,a,1,0.616
8168,1,RB,14,b,d,a,0,0.613
8168,1,RB,15,b,d,a,0,0.8029999999999999
8168,1,RB,16,b,j,b,1,0.754
8168,1,RB,17,b,j,b,1,0.664
8168,1,RB,18,a,j,b,0,0.604
8168,1,RB,19,b,j,b,1,0.809
8168,1,RB,20,b,j,b,1,1.3030000000000002
8168,1,RB,21,b,j,b,1,0.642
8168,1,RB,22,a,d,a,1,0.516
8168,1,RB,23,b,j,b,1,0.63
8168,1,RB,24,b,j,b,1,0.747
8168,1,RB,25,a,j,b,0,0.675
8168,1,RB,26,b,j,b,1,0.789
8168,1,RB,27,a,j,b,0,0.763
8168,1,RB,28,a,d,a,1,0.627
8168,1,RB,29,b,j,b,1,0.856
8168,1,RB,30,a,j,b,0,0.884
8168,1,RB,31,a,d,a,1,1.3730000000000002
8168,1,RB,32,b,j,b,1,2.989
8168,1,RB,33,a,d,a,1,1.794
8168,1,RB,34,b,j,b,1,0.9520000000000001
8168,1,RB,35,a,d,a,1,0.88
8168,1,RB,36,b,d,a,0,0.9309999999999999
8168,1,RB,37,a,d,a,1,0.8909999999999999
8168,1,RB,38,b,j,b,1,1.045
8168,1,RB,39,a,j,b,0,1.7690000000000001
8168,1,RB,40,b,d,a,0,1.375
8168,1,RB,41,b,d,a,0,0.45399999999999996
8168,1,RB,42,b,d,a,0,0.8740000000000001
8168,1,RB,43,a,j,b,0,0.726
8168,1,RB,44,b,d,a,0,0.42200000000000004
8168,1,RB,45,b,j,b,1,0.49
8168,1,RB,46,b,j,b,1,0.853
8168,1,RB,47,b,j,b,1,0.7120000000000001
8168,1,RB,48,b,j,b,1,0.602
8168,1,RB,49,a,j,b,0,0.7440000000000001
8168,1,RB,50,b,j,b,1,0.632
8168,1,RB,51,b,j,b,1,0.629
8168,1,RB,52,a,j,b,0,0.634
8168,1,RB,53,b,j,b,1,0.8290000000000001
8168,1,RB,54,a,j,b,0,1.075
8168,1,RB,55,a,j,b,0,0.7559999999999999
8168,1,RB,56,a,j,b,0,0.797
8168,1,RB,57,a,d,a,1,0.794
8168,1,RB,58,a,d,a,1,1.28
8168,1,RB,59,a,d,a,1,0.987
8168,1,RB,60,a,d,a,1,0.5870000000000001
8168,1,RB,61,a,d,a,1,0.505
8168,1,RB,62,b,j,b,1,0.8340000000000001
8168,1,RB,63,b,j,b,1,0.735
8168,1,RB,64,a,d,a,1,1.111
8168,1,RB,65,a,j,b,0,1.6
8168,1,RB,66,b,j,b,1,0.895
8168,1,RB,67,a,j,b,0,0.833
8168,1,RB,68,b,j,b,1,0.86
8168,1,RB,69,b,j,b,1,0.528
8168,1,RB,70,b,j,b,1,0.649
8168,1,RB,71,a,j,b,0,0.636
8168,1,RB,72,b,j,b,1,0.642
8168,1,RB,73,a,j,b,0,0.614
8168,1,RB,74,a,d,a,1,1.034
8168,1,RB,75,b,j,b,1,1.159
8168,1,RB,76,b,j,b,1,0.5920000000000001
8168,1,RB,77,b,j,b,1,0.341
8168,1,RB,78,a,j,b,0,0.45299999999999996
8168,1,RB,79,a,j,b,0,4.066
8168,1,RB,80,a,j,b,0,0.027999999999999997
8168,2,RB,81,b,j,b,1,2.943
8168,2,RB,82,a,j,b,0,0.5920000000000001
8168,2,RB,83,a,d,a,1,0.9570000000000001
8168,2,RB,84,a,d,a,1,0.9640000000000001
8168,2,RB,85,a,d,a,1,3.227
8168,2,RB,86,b,d,a,0,1.023
8168,2,RB,87,b,d,a,0,0.867
8168,2,RB,88,a,d,a,1,0.5579999999999999
8168,2,RB,89,b,d,a,0,0.6709999999999999
8168,2,RB,90,a,d,a,1,1.778
8168,2,RB,91,a,d,a,1,0.593
8168,2,RB,92,a,d,a,1,0.693
8168,2,RB,93,a,d,a,1,0.816
8168,2,RB,94,b,j,b,1,1.0290000000000001
8168,2,RB,95,b,j,b,1,0.602
8168,2,RB,96,b,j,b,1,0.56
8168,2,RB,97,b,j,b,1,0.608
8168,2,RB,98,a,j,b,0,0.637
8168,2,RB,99,b,j,b,1,0.665
8168,2,RB,100,b,j,b,1,1.189
8168,2,RB,101,b,j,b,1,0.635
8168,2,RB,102,a,d,a,1,0.799
8168,2,RB,103,b,j,b,1,0.645
8168,2,RB,104,b,j,b,1,4.266
8168,2,RB,105,a,j,b,0,0.667
8168,2,RB,106,b,d,a,0,0.48700000000000004
8168,2,RB,107,a,d,a,1,1.265
8168,2,RB,108,a,d,a,1,1.284
8168,2,RB,109,b,d,a,0,1.518
8168,2,RB,110,a,u,invalid key,0,0.48
8168,2,RB,111,a,j,b,0,2.114
8168,2,RB,112,b,d,a,0,0.32299999999999995
8168,2,RB,113,a,j,b,0,0.725
8168,2,RB,114,b,d,a,0,0.645
8168,2,RB,115,a,d,a,1,0.513
8168,2,RB,116,b,j,b,1,0.754
8168,2,RB,117,a,j,b,0,0.7140000000000001
8168,2,RB,118,b,j,b,1,0.851
8168,2,RB,119,a,j,b,0,0.551
8168,2,RB,120,b,j,b,1,1.015
8168,2,RB,121,b,j,b,1,0.765
8168,2,RB,122,b,j,b,1,0.612
8168,2,RB,123,a,j,b,0,0.865
8168,2,RB,124,b,j,b,1,1.7890000000000001
8168,2,RB,125,b,j,b,1,0.762
8168,2,RB,126,b,j,b,1,0.594
8168,2,RB,127,b,j,b,1,0.424
8168,2,RB,128,b,j,b,1,0.883
8168,2,RB,129,a,j,b,0,0.695
8168,2,RB,130,b,j,b,1,0.7859999999999999
8168,2,RB,131,b,j,b,1,0.327
8168,2,RB,132,a,j,b,0,0.265
8168,2,RB,133,b,j,b,1,0.341
8168,2,RB,134,a,j,b,0,0.436
8168,2,RB,135,a,j,b,0,0.392
8168,2,RB,136,a,j,b,0,0.409
8168,2,RB,137,a,j,b,0,0.893
8168,2,RB,138,a,d,a,1,0.711
8168,2,RB,139,a,d,a,1,0.625
8168,2,RB,140,a,d,a,1,0.5329999999999999
8168,2,RB,141,a,d,a,1,0.518
8168,2,RB,142,b,d,a,0,0.551
8168,2,RB,143,b,j,b,1,0.6629999999999999
8168,2,RB,144,a,j,b,0,0.9540000000000001
8168,2,RB,145,a,d,a,1,0.529
8168,2,RB,146,b,d,a,0,0.442
8168,2,RB,147,a,d,a,1,0.311
8168,2,RB,148,b,d,a,0,0.35200000000000004
8168,2,RB,149,b,d,a,0,0.305
8168,2,RB,150,b,d,a,0,0.306
8168,2,RB,151,a,d,a,1,0.355
8168,2,RB,152,b,d,a,0,0.33899999999999997
8168,2,RB,153,a,d,a,1,0.34700000000000003
8168,2,RB,154,a,d,a,1,0.331
8168,2,RB,155,b,d,a,0,0.276
8168,2,RB,156,b,d,a,0,0.28600000000000003
8168,2,RB,157,b,d,a,0,0.32899999999999996
8168,2,RB,158,a,j,b,0,0.282
8168,2,RB,159,a,d,a,1,0.205
8168,2,RB,160,a,d,a,1,0.253
8168,3,RB,161,b,d,a,0,0.255
8168,3,RB,162,a,d,a,1,0.267
8168,3,RB,163,a,d,a,1,0.21600000000000003
8168,3,RB,164,a,d,a,1,0.35700000000000004
8168,3,RB,165,a,d,a,1,0.276
8168,3,RB,166,b,d,a,0,0.375
8168,3,RB,167,b,d,a,0,0.405
8168,3,RB,168,a,d,a,1,0.499
8168,3,RB,169,b,d,a,0,0.43700000000000006
8168,3,RB,170,a,d,a,1,0.418
8168,3,RB,171,a,d,a,1,0.17600000000000002
8168,3,RB,172,a,d,a,1,0.638
8168,3,RB,173,a,d,a,1,1.0659999999999998
8168,3,RB,174,b,d,a,0,0.365
8168,3,RB,175,b,j,b,1,1.82
8168,3,RB,176,b,j,b,1,0.81
8168,3,RB,177,b,j,b,1,1.3330000000000002
8168,3,RB,178,a,j,b,0,0.40700000000000003
8168,3,RB,179,b,d,a,0,0.316
8168,3,RB,180,b,j,b,1,0.693
8168,3,RB,181,b,j,b,1,1.048
8168,3,RB,182,a,d,a,1,3.092
8168,3,RB,183,b,j,b,1,0.396
8168,3,RB,184,b,d,a,0,0.098
8168,3,RB,185,a,j,b,0,0.141
8168,3,RB,186,b,d,a,0,0.085
8168,3,RB,187,a,d,a,1,0.551
8168,3,RB,188,a,d,a,1,0.527
8168,3,RB,189,b,d,a,0,0.505
8168,3,RB,190,a,d,a,1,0.594
8168,3,RB,191,a,d,a,1,0.616
8168,3,RB,192,b,d,a,0,0.581
8168,3,RB,193,a,d,a,1,0.629
8168,3,RB,194,b,d,a,0,0.778
8168,3,RB,195,a,j,b,0,0.8959999999999999
8168,3,RB,196,b,d,a,0,0.611
8168,3,RB,197,a,d,a,1,0.40700000000000003
8168,3,RB,198,b,d,a,0,0.33299999999999996
8168,3,RB,199,a,j,b,0,0.478
8168,3,RB,200,b,d,a,0,0.425
8168,3,RB,201,b,d,a,0,0.733
8168,3,RB,202,b,d,a,0,0.45399999999999996
8168,3,RB,203,a,d,a,1,0.73
8168,3,RB,204,b,d,a,0,0.667
8168,3,RB,205,b,d,a,0,0.27
8168,3,RB,206,b,d,a,0,0.418
8168,3,RB,207,b,d,a,0,0.902
8168,3,RB,208,b,d,a,0,1.121
8168,3,RB,209,a,d,a,1,0.051
8168,3,RB,210,b,d,a,0,0.325
8168,3,RB,211,b,j,b,1,0.831
8168,3,RB,212,a,j,b,0,0.595
8168,3,RB,213,b,j,b,1,0.713
8168,3,RB,214,a,j,b,0,0.8420000000000001
8168,3,RB,215,a,d,a,1,0.519
8168,3,RB,216,a,d,a,1,0.879
8168,3,RB,217,a,j,b,0,1.194
8168,3,RB,218,a,j,b,0,1.112
8168,3,RB,219,a,d,a,1,0.7040000000000001
8168,3,RB,220,a,d,a,1,0.483
8168,3,RB,221,a,d,a,1,0.556
8168,3,RB,222,b,j,b,1,0.541
8168,3,RB,223,b,j,b,1,0.605
8168,3,RB,224,a,j,b,0,0.7859999999999999
8168,3,RB,225,a,d,a,1,0.9690000000000001
8168,3,RB,226,b,None,None,0,9999.0
8168,3,RB,227,a,d,a,1,1.8840000000000001
8168,3,RB,228,b,d,a,0,0.551
8168,3,RB,229,b,d,a,0,0.479
8168,3,RB,230,b,None,None,0,9999.0
8168,3,RB,231,a,None,None,0,9999.0
8168,3,RB,232,b,d,a,0,1.419
8168,3,RB,233,a,d,a,1,0.519
8168,3,RB,234,a,d,a,1,0.594
8168,3,RB,235,b,d,a,0,0.7759999999999999
8168,3,RB,236,b,d,a,0,0.518
8168,3,RB,237,b,d,a,0,0.359
8168,3,RB,238,a,j,b,0,0.631
8168,3,RB,239,a,d,a,1,0.204
8168,3,RB,240,a,d,a,1,0.682
8180,1,II,1,a,None,None,0,9999.0
8180,1,II,2,a,j,b,0,0.568
8180,1,II,3,b,d,a,0,0.496
8180,1,II,4,b,j,b,1,0.635
8180,1,II,5,a,d,a,1,0.7020000000000001
8180,1,II,6,b,d,a,0,0.578
8180,1,II,7,a,j,b,0,1.064
8180,1,II,8,b,d,a,0,0.8909999999999999
8180,1,II,9,b,j,b,1,0.902
8180,1,II,10,a,d,a,1,1.206
8180,1,II,11,a,j,b,0,1.38
8180,1,II,12,a,d,a,1,0.643
8180,1,II,13,a,d,a,1,0.8220000000000001
8180,1,II,14,a,d,a,1,1.107
8180,1,II,15,a,d,a,1,0.7490000000000001
8180,1,II,16,a,d,a,1,0.588
8180,1,II,17,b,j,b,1,0.627
8180,1,II,18,b,j,b,1,0.711
8180,1,II,19,b,j,b,1,0.633
8180,1,II,20,b,d,a,0,0.71
8180,1,II,21,a,d,a,1,1.815
8180,1,II,22,b,d,a,0,0.46
8180,1,II,23,b,d,a,0,0.8290000000000001
8180,1,II,24,b,d,a,0,0.763
8180,1,II,25,a,d,a,1,1.123
8180,1,II,26,b,d,a,0,1.5630000000000002
8180,1,II,27,b,d,a,0,0.746
8180,1,II,28,a,d,a,1,0.706
8180,1,II,29,b,j,b,1,0.892
8180,1,II,30,b,d,a,0,1.206
8180,1,II,31,b,d,a,0,0.779
8180,1,II,32,a,d,a,1,0.778
8180,1,II,33,b,j,b,1,1.041
8180,1,II,34,a,j,b,0,0.7
8180,1,II,35,a,d,a,1,0.758
8180,1,II,36,a,d,a,1,0.845
8180,1,II,37,a,j,b,0,1.754
8180,1,II,38,a,d,a,1,0.616
8180,1,II,39,b,d,a,0,0.5579999999999999
8180,1,II,40,a,d,a,1,0.95
8180,1,II,41,b,d,a,0,1.013
8180,1,II,42,a,d,a,1,0.7709999999999999
8180,1,II,43,b,j,b,1,1.1540000000000001
8180,1,II,44,b,d,a,0,0.866
8180,1,II,45,a,d,a,1,0.789
8180,1,II,46,a,j,b,0,0.787
8180,1,II,47,b,d,a,0,0.506
8180,1,II,48,a,d,a,1,1.788
8180,1,II,49,b,d,a,0,0.753
8180,1,II,50,b,d,a,0,0.7859999999999999
8180,1,II,51,a,j,b,0,0.569
8180,1,II,52,b,d,a,0,0.568
8180,1,II,53,b,j,b,1,0.879
8180,1,II,54,a,j,b,0,1.0490000000000002
8180,1,II,55,a,d,a,1,0.5579999999999999
8180,1,II,56,a,d,a,1,0.6920000000000001
8180,1,II,57,a,d,a,1,0.518
8180,1,II,58,a,d,a,1,0.551
8180,1,II,59,b,j,b,1,0.905
8180,1,II,60,b,d,a,0,1.0170000000000001
8180,1,II,61,a,j,b,0,0.758
8180,1,II,62,b,d,a,0,0.735
8180,1,II,63,b,j,b,1,0.55
8180,1,II,64,a,j,b,0,0.615
8180,1,II,65,b,d,a,0,0.643
8180,1,II,66,b,j,b,1,0.8320000000000001
8180,1,II,67,a,d,a,1,0.8370000000000001
8180,1,II,68,b,d,a,0,0.9620000000000001
8180,1,II,69,b,j,b,1,0.833
8180,1,II,70,b,j,b,1,0.742
8180,1,II,71,a,d,a,1,1.429
8180,1,II,72,a,d,a,1,0.8420000000000001
8180,1,II,73,b,j,b,1,0.718
8180,1,II,74,b,j,b,1,0.6709999999999999
8180,1,II,75,a,d,a,1,0.61
8180,1,II,76,b,d,a,0,1.3840000000000001
8180,1,II,77,a,d,a,1,0.894
8180,1,II,78,a,d,a,1,0.752
8180,1,II,79,b,j,b,1,0.848
8180,1,II,80,a,d,a,1,0.94
8180,2,II,81,a,d,a,1,0.725
8180,2,II,82,a,j,b,0,0.7
8180,2,II,83,b,j,b,1,1.111
8180,2,II,84,b,j,b,1,0.871
8180,2,II,85,a,j,b,0,1.0979999999999999
8180,2,II,86,b,j,b,1,1.365
8180,2,II,87,a,j,b,0,0.763
8180,2,II,88,b,d,a,0,0.8109999999999999
8180,2,II,89,b,d,a,0,1.232
8180,2,II,90,a,j,b,0,0.8690000000000001
8180,2,II,91,a,d,a,1,1.113
8180,2,II,92,a,d,a,1,1.185
8180,2,II,93,a,j,b,0,0.953
8180,2,II,94,a,d,a,1,0.655
8180,2,II,95,a,d,a,1,0.7709999999999999
8180,2,II,96,a,d,a,1,0.698
8180,2,II,97,b,j,b,1,0.46
8180,2,II,98,b,j,b,1,0.607
8180,2,II,99,b,j,b,1,0.557
8180,2,II,100,b,d,a,0,0.868
8180,2,II,101,a,j,b,0,1.064
8180,2,II,102,b,d,a,0,1.018
8180,2,II,103,b,j,b,1,0.807
8180,2,II,104,b,j,b,1,0.8140000000000001
8180,2,II,105,a,j,b,0,0.779
8180,2,II,106,b,d,a,0,1.21
8180,2,II,107,b,d,a,0,0.887
8180,2,II,108,a,j,b,0,0.457
8180,2,II,109,b,d,a,0,0.6940000000000001
8180,2,II,110,b,j,b,1,0.623
8180,2,II,111,b,j,b,1,0.541
8180,2,II,112,a,j,b,0,0.54
8180,2,II,113,b,j,b,1,0.524
8180,2,II,114,a,j,b,0,0.765
8180,2,II,115,a,d,a,1,0.556
8180,2,II,116,a,d,a,1,0.564
8180,2,II,117,a,j,b,0,0.6509999999999999
8180,2,II,118,a,d,a,1,0.447
8180,2,II,119,b,d,a,0,0.49200000000000005
8180,2,II,120,a,j,b,0,0.621
8180,2,II,121,b,d,a,0,0.45
8180,2,II,122,a,j,b,0,0.679
8180,2,II,123,b,j,b,1,0.5770000000000001
8180,2,II,124,b,j,b,1,0.856
8180,2,II,125,a,j,b,0,0.612
8180,2,II,126,a,d,a,1,0.528
8180,2,II,127,b,d,a,0,0.713
8180,2,II,128,a,j,b,0,0.451
8180,2,II,129,b,j,b,1,0.59
8180,2,II,130,b,j,b,1,0.573
8180,2,II,131,a,d,a,1,0.74
8180,2,II,132,b,j,b,1,0.491
8180,2,II,133,b,j,b,1,0.55
8180,2,II,134,a,d,a,1,0.9420000000000001
8180,2,II,135,a,j,b,0,0.614
8180,2,II,136,a,d,a,1,0.779
8180,2,II,137,a,d,a,1,0.867
8180,2,II,138,a,d,a,1,0.7170000000000001
8180,2,II,139,b,j,b,1,1.199
8180,2,II,140,b,j,b,1,1.6680000000000001
8180,2,II,141,a,j,b,0,0.96
8180,2,II,142,b,j,b,1,1.1340000000000001
8180,2,II,143,b,j,b,1,1.015
8180,2,II,144,a,j,b,0,0.83
8180,2,II,145,b,j,b,1,0.8170000000000001
8180,2,II,146,b,d,a,0,0.767
8180,2,II,147,a,d,a,1,0.925
8180,2,II,148,b,j,b,1,1.07
8180,2,II,149,b,j,b,1,1.018
8180,2,II,150,b,j,b,1,0.6940000000000001
8180,2,II,151,a,d,a,1,0.7290000000000001
8180,2,II,152,a,d,a,1,0.754
8180,2,II,153,b,j,b,1,0.737
8180,2,II,154,b,j,b,1,0.626
8180,2,II,155,a,j,b,0,1.335
8180,2,II,156,b,j,b,1,0.648
8180,2,II,157,a,d,a,1,0.779
8180,2,II,158,a,d,a,1,0.593
8180,2,II,159,b,d,a,0,0.727
8180,2,II,160,a,j,b,0,0.7040000000000001
8180,3,II,161,a,d,a,1,0.609
8180,3,II,162,a,j,b,0,0.502
8180,3,II,163,b,j,b,1,0.7929999999999999
8180,3,II,164,b,j,b,1,0.687
8180,3,II,165,a,j,b,0,0.674
8180,3,II,166,b,d,a,0,0.581
8180,3,II,167,a,j,b,0,0.634
8180,3,II,168,b,j,b,1,1.192
8180,3,II,169,b,j,b,1,1.1340000000000001
8180,3,II,170,a,j,b,0,0.7829999999999999
8180,3,II,171,a,j,b,0,0.5820000000000001
8180,3,II,172,a,d,a,1,0.635
8180,3,II,173,a,d,a,1,0.584
8180,3,II,174,a,d,a,1,1.032
8180,3,II,175,a,d,a,1,0.539
8180,3,II,176,a,d,a,1,0.54
8180,3,II,177,b,j,b,1,0.54
8180,3,II,178,b,d,a,0,0.8190000000000001
8180,3,II,179,b,j,b,1,0.682
8180,3,II,180,b,d,a,0,0.62
8180,3,II,181,a,j,b,0,0.993
8180,3,II,182,b,d,a,0,0.528
8180,3,II,183,b,j,b,1,0.912
8180,3,II,184,b,j,b,1,0.313
8180,3,II,185,a,d,a,1,0.835
8180,3,II,186,b,j,b,1,1.44
8180,3,II,187,b,d,a,0,1.0979999999999999
8180,3,II,188,a,j,b,0,0.573
8180,3,II,189,b,d,a,0,0.884
8180,3,II,190,b,d,a,0,1.1340000000000001
8180,3,II,191,b,j,b,1,0.271
8180,3,II,192,a,j,b,0,0.81
8180,3,II,193,b,d,a,0,0.48100000000000004
8180,3,II,194,a,j,b,0,0.42700000000000005
8180,3,II,195,a,d,a,1,0.48
8180,3,II,196,a,j,b,0,0.523
8180,3,II,197,a,d,a,1,0.46799999999999997
8180,3,II,198,a,j,b,0,0.47
8180,3,II,199,b,d,a,0,0.425
8180,3,II,200,a,j,b,0,0.327
8180,3,II,201,b,j,b,1,0.408
8180,3,II,202,a,j,b,0,0.45299999999999996
8180,3,II,203,b,j,b,1,0.474
8180,3,II,204,b,j,b,1,0.49200000000000005
8180,3,II,205,a,j,b,0,0.7340000000000001
8180,3,II,206,a,j,b,0,0.40700000000000003
8180,3,II,207,b,d,a,0,1.004
8180,3,II,208,a,j,b,0,0.322
8180,3,II,209,b,j,b,1,0.41100000000000003
8180,3,II,210,b,j,b,1,1.024
8180,3,II,211,a,j,b,0,0.5720000000000001
8180,3,II,212,b,d,a,0,0.49200000000000005
8180,3,II,213,b,j,b,1,0.63
8180,3,II,214,a,j,b,0,0.6659999999999999
8180,3,II,215,a,d,a,1,0.518
8180,3,II,216,a,d,a,1,0.439
8180,3,II,217,a,d,a,1,0.595
8180,3,II,218,a,d,a,1,0.562
8180,3,II,219,b,j,b,1,0.489
8180,3,II,220,b,d,a,0,1.266
8180,3,II,221,a,j,b,0,1.014
8180,3,II,222,b,j,b,1,1.547
8180,3,II,223,b,j,b,1,0.8909999999999999
8180,3,II,224,a,j,b,0,0.845
8180,3,II,225,b,d,a,0,1.337
8180,3,II,226,b,j,b,1,0.322
8180,3,II,227,a,j,b,0,0.523
8180,3,II,228,b,d,a,0,0.515
8180,3,II,229,b,j,b,1,0.444
8180,3,II,230,b,j,b,1,0.465
8180,3,II,231,a,j,b,0,0.612
8180,3,II,232,a,j,b,0,0.48200000000000004
8180,3,II,233,b,d,a,0,1.396
8180,3,II,234,b,j,b,1,0.562
8180,3,II,235,a,j,b,0,0.53
8180,3,II,236,b,d,a,0,0.275
8180,3,II,237,a,j,b,0,0.35700000000000004
8180,3,II,238,a,d,a,1,0.396
8180,3,II,239,b,d,a,0,0.435
8180,3,II,240,a,j,b,0,0.48
8160,1,II,1,a,None,None,0,9999.0
8160,1,II,2,a,j,b,0,2.026
8160,1,II,3,b,d,a,0,2.0540000000000003
8160,1,II,4,a,j,b,0,1.099
8160,1,II,5,b,d,a,0,1.5319999999999998
8160,1,II,6,a,d,a,1,0.909
8160,1,II,7,b,j,b,1,2.023
8160,1,II,8,a,d,a,1,1.251
8160,1,II,9,b,d,a,0,1.295
8160,1,II,10,b,d,a,0,0.561
8160,1,II,11,a,j,b,0,0.552
8160,1,II,12,a,j,b,0,1.111
8160,1,II,13,a,j,b,0,0.929
8160,1,II,14,a,d,a,1,0.475
8160,1,II,15,b,d,a,0,0.573
8160,1,II,16,a,d,a,1,1.484
8160,1,II,17,a,d,a,1,0.54
8160,1,II,18,a,j,b,0,0.614
8160,1,II,19,a,d,a,1,0.252
8160,1,II,20,a,j,b,0,0.415
8160,1,II,21,a,j,b,0,0.317
8160,1,II,22,a,d,a,1,0.28
8160,1,II,23,b,d,a,0,0.442
8160,1,II,24,b,d,a,0,1.046
8160,1,II,25,b,d,a,0,0.235
8160,1,II,26,b,j,b,1,-0.048
8160,1,II,27,a,d,a,1,0.41200000000000003
8160,1,II,28,a,d,a,1,0.546
8160,1,II,29,b,j,b,1,0.40299999999999997
8160,1,II,30,b,j,b,1,0.426
8160,1,II,31,b,d,a,0,0.39799999999999996
8160,1,II,32,b,j,b,1,0.684
8160,1,II,33,b,d,a,0,0.615
8160,1,II,34,a,d,a,1,0.644
8160,1,II,35,b,d,a,0,0.384
8160,1,II,36,a,j,b,0,0.151
8160,1,II,37,b,j,b,1,-0.025
8160,1,II,38,a,d,a,1,0.341
8160,1,II,39,b,j,b,1,1.094
8160,1,II,40,a,d,a,1,0.624
8160,1,II,41,a,j,b,0,0.491
8160,1,II,42,a,j,b,0,0.446
8160,1,II,43,b,d,a,0,0.444
8160,1,II,44,a,d,a,1,0.43
8160,1,II,45,b,d,a,0,0.3
8160,1,II,46,a,j,b,0,0.28600000000000003
8160,1,II,47,b,d,a,0,0.233
8160,1,II,48,a,d,a,1,0.213
8160,1,II,49,a,j,b,0,0.33899999999999997
8160,1,II,50,b,j,b,1,0.244
8160,1,II,51,a,j,b,0,0.59
8160,1,II,52,a,d,a,1,0.278
8160,1,II,53,b,d,a,0,0.377
8160,1,II,54,a,j,b,0,0.271
8160,1,II,55,a,j,b,0,0.09
8160,1,II,56,b,d,a,0,-0.222
8160,1,II,57,b,d,a,0,0.307
8160,1,II,58,b,d,a,0,0.253
8160,1,II,59,a,j,b,0,0.21600000000000003
8160,1,II,60,a,d,a,1,0.15
8160,1,II,61,b,j,b,1,0.28600000000000003
8160,1,II,62,b,j,b,1,0.217
8160,1,II,63,a,d,a,1,0.575
8160,1,II,64,b,d,a,0,0.389
8160,1,II,65,b,d,a,0,0.429
8160,1,II,66,b,d,a,0,0.305
8160,1,II,67,b,d,a,0,0.19399999999999998
8160,1,II,68,b,j,b,1,0.13
8160,1,II,69,a,j,b,0,0.29100000000000004
8160,1,II,70,b,j,b,1,0.16399999999999998
8160,1,II,71,b,d,a,0,0.132
8160,1,II,72,b,j,b,1,0.045
8160,1,II,73,a,j,b,0,0.298
8160,1,II,74,b,j,b,1,0.244
8160,1,II,75,a,d,a,1,0.518
8160,1,II,76,a,j,b,0,0.08900000000000001
8160,1,II,77,b,d,a,0,0.298
8160,1,II,78,a,j,b,0,0.436
8160,1,II,79,b,d,a,0,0.385
8160,1,II,80,b,d,a,0,0.248
8160,2,II,81,a,d,a,1,0.341
8160,2,II,82,a,j,b,0,0.596
8160,2,II,83,b,d,a,0,0.251
8160,2,II,84,a,d,a,1,0.271
8160,2,II,85,b,d,a,0,0.337
8160,2,II,86,a,d,a,1,0.153
8160,2,II,87,b,j,b,1,0.37
8160,2,II,88,a,j,b,0,0.258
8160,2,II,89,b,d,a,0,0.005
8160,2,II,90,b,d,a,0,0.40299999999999997
8160,2,II,91,a,j,b,0,0.033
8160,2,II,92,a,j,b,0,0.415
8160,2,II,93,a,d,a,1,0.644
8160,2,II,94,a,d,a,1,1.143
8160,2,II,95,b,d,a,0,0.6559999999999999
8160,2,II,96,a,d,a,1,0.963
8160,2,II,97,a,j,b,0,0.9390000000000001
8160,2,II,98,a,j,b,0,0.267
8160,2,II,99,a,j,b,0,0.574
8160,2,II,100,a,d,a,1,0.293
8160,2,II,101,a,d,a,1,0.24
8160,2,II,102,a,d,a,1,-0.109
8160,2,II,103,b,d,a,0,0.569
8160,2,II,104,b,d,a,0,0.066
8160,2,II,105,b,d,a,0,0.09300000000000001
8160,2,II,106,b,d,a,0,0.214
8160,2,II,107,a,j,b,0,0.036000000000000004
8160,2,II,108,a,j,b,0,0.345
8160,2,II,109,b,d,a,0,0.48200000000000004
8160,2,II,110,b,j,b,1,0.23600000000000002
8160,2,II,111,b,j,b,1,0.28800000000000003
8160,2,II,112,b,j,b,1,0.603
8160,2,II,113,b,j,b,1,0.34600000000000003
8160,2,II,114,a,j,b,0,0.249
8160,2,II,115,b,j,b,1,0.086
8160,2,II,116,a,j,b,0,0.273
8160,2,II,117,b,d,a,0,0.11599999999999999
8160,2,II,118,a,d,a,1,0.317
8160,2,II,119,b,d,a,0,0.263
8160,2,II,120,a,j,b,0,0.107
8160,2,II,121,a,j,b,0,0.284
8160,2,II,122,a,j,b,0,0.079
8160,2,II,123,b,j,b,1,0.20199999999999999
8160,2,II,124,a,d,a,1,0.10400000000000001
8160,2,II,125,b,d,a,0,0.32299999999999995
8160,2,II,126,a,j,b,0,0.098
8160,2,II,127,b,j,b,1,0.006
8160,2,II,128,a,j,b,0,0.001
8160,2,II,129,a,j,b,0,0.001
8160,2,II,130,b,d,a,0,0.215
8160,2,II,131,a,d,a,1,0.021
8160,2,II,132,a,d,a,1,0.05
8160,2,II,133,b,d,a,0,0.375
8160,2,II,134,a,j,b,0,0.03
8160,2,II,135,a,j,b,0,0.002
8160,2,II,136,b,d,a,0,0.233
8160,2,II,137,b,j,b,1,0.046
8160,2,II,138,b,j,b,1,0.275
8160,2,II,139,a,j,b,0,0.005
8160,2,II,140,a,d,a,1,-0.069
8160,2,II,141,b,d,a,0,0.305
8160,2,II,142,b,d,a,0,0.075
8160,2,II,143,a,d,a,1,0.11
8160,2,II,144,b,j,b,1,0.40700000000000003
8160,2,II,145,b,d,a,0,0.365
8160,2,II,146,b,j,b,1,0.26
8160,2,II,147,b,j,b,1,0.28800000000000003
8160,2,II,148,b,j,b,1,0.299
8160,2,II,149,a,j,b,0,0.237
8160,2,II,150,b,j,b,1,0.41100000000000003
8160,2,II,151,b,j,b,1,0.34299999999999997
8160,2,II,152,b,j,b,1,0.7190000000000001
8160,2,II,153,a,d,a,1,0.418
8160,2,II,154,b,j,b,1,0.5579999999999999
8160,2,II,155,a,j,b,0,0.621
8160,2,II,156,a,d,a,1,0.5870000000000001
8160,2,II,157,b,d,a,0,0.7929999999999999
8160,2,II,158,a,j,b,0,0.319
8160,2,II,159,b,j,b,1,0.561
8160,2,II,160,b,d,a,0,0.711
8160,3,II,161,a,d,a,1,0.665
8160,3,II,162,a,d,a,1,0.725
8160,3,II,163,b,d,a,0,0.74
8160,3,II,164,a,j,b,0,0.342
8160,3,II,165,b,j,b,1,0.254
8160,3,II,166,a,j,b,0,0.675
8160,3,II,167,b,d,a,0,0.589
8160,3,II,168,a,d,a,1,0.428
8160,3,II,169,b,d,a,0,0.489
8160,3,II,170,b,d,a,0,0.28300000000000003
8160,3,II,171,a,j,b,0,0.262
8160,3,II,172,a,d,a,1,-0.207
8160,3,II,173,a,j,b,0,-0.222
8160,3,II,174,a,j,b,0,0.406
8160,3,II,175,b,j,b,1,0.396
8160,3,II,176,a,j,b,0,0.61
8160,3,II,177,a,d,a,1,0.327
8160,3,II,178,a,j,b,0,1.056
8160,3,II,179,a,d,a,1,0.10800000000000001
8160,3,II,180,a,d,a,1,0.285
8160,3,II,181,a,d,a,1,0.34299999999999997
8160,3,II,182,a,j,b,0,0.368
8160,3,II,183,b,d,a,0,0.375
8160,3,II,184,b,d,a,0,0.374
8160,3,II,185,b,j,b,1,0.573
8160,3,II,186,b,d,a,0,0.612
8160,3,II,187,a,d,a,1,0.7759999999999999
8160,3,II,188,a,d,a,1,0.696
8160,3,II,189,b,j,b,1,0.522
8160,3,II,190,b,j,b,1,0.89
8160,3,II,191,b,d,a,0,0.044000000000000004
8160,3,II,192,b,j,b,1,0.025
8160,3,II,193,b,d,a,0,0.062
8160,3,II,194,a,f,invalid key,0,0.809
8160,3,II,195,b,d,a,0,1.238
8160,3,II,196,a,j,b,0,0.467
8160,3,II,197,b,d,a,0,0.381
8160,3,II,198,a,d,a,1,-0.027000000000000003
8160,3,II,199,b,d,a,0,0.8909999999999999
8160,3,II,200,a,d,a,1,0.261
8160,3,II,201,a,d,a,1,0.44799999999999995
8160,3,II,202,a,d,a,1,0.35700000000000004
8160,3,II,203,b,j,b,1,0.5479999999999999
8160,3,II,204,a,j,b,0,0.41200000000000003
8160,3,II,205,b,d,a,0,0.27399999999999997
8160,3,II,206,a,d,a,1,0.245
8160,3,II,207,b,d,a,0,0.841
8160,3,II,208,a,j,b,0,0.429
8160,3,II,209,a,d,a,1,0.25
8160,3,II,210,b,d,a,0,0.606
8160,3,II,211,a,j,b,0,0.171
8160,3,II,212,a,d,a,1,0.28300000000000003
8160,3,II,213,b,d,a,0,2.094
8160,3,II,214,a,j,b,0,1.391
8160,3,II,215,a,d,a,1,0.997
8160,3,II,216,b,d,a,0,0.9470000000000001
8160,3,II,217,b,j,b,1,0.195
8160,3,II,218,b,j,b,1,0.314
8160,3,II,219,a,j,b,0,0.282
8160,3,II,220,a,d,a,1,0.26899999999999996
8160,3,II,221,b,d,a,0,0.297
8160,3,II,222,b,j,b,1,0.21899999999999997
8160,3,II,223,a,j,b,0,0.648
8160,3,II,224,b,d,a,0,0.22899999999999998
8160,3,II,225,b,d,a,0,0.07400000000000001
8160,3,II,226,b,j,b,1,0.26
8160,3,II,227,b,j,b,1,0.312
8160,3,II,228,b,j,b,1,0.434
8160,3,II,229,a,j,b,0,0.326
8160,3,II,230,b,j,b,1,0.326
8160,3,II,231,b,j,b,1,0.41600000000000004
8160,3,II,232,b,j,b,1,0.615
8160,3,II,233,a,d,a,1,0.787
8160,3,II,234,b,d,a,0,0.762
8160,3,II,235,a,j,b,0,0.201
8160,3,II,236,a,d,a,1,0.19899999999999998
8160,3,II,237,b,d,a,0,0.317
8160,3,II,238,a,j,b,0,0.27899999999999997
8160,3,II,239,b,d,a,0,0.27399999999999997
8160,3,II,240,b,j,b,1,0.276
8165,1,RB,1,a,d,a,1,2.785
8165,1,RB,2,b,j,b,1,1.5830000000000002
8165,1,RB,3,b,j,b,1,0.725
8165,1,RB,4,b,j,b,1,0.7020000000000001
8165,1,RB,5,b,j,b,1,0.7120000000000001
8165,1,RB,6,a,d,a,1,1.409
8165,1,RB,7,b,j,b,1,1.646
8165,1,RB,8,b,j,b,1,1.41
8165,1,RB,9,b,j,b,1,0.695
8165,1,RB,10,a,d,a,1,0.89
8165,1,RB,11,b,j,b,1,1.139
8165,1,RB,12,b,j,b,1,1.109
8165,1,RB,13,a,d,a,1,0.956
8165,1,RB,14,a,d,a,1,2.483
8165,1,RB,15,b,d,a,0,1.725
8165,1,RB,16,a,d,a,1,1.135
8165,1,RB,17,a,d,a,1,1.19
8165,1,RB,18,a,j,b,0,1.348
8165,1,RB,19,a,d,a,1,0.996
8165,1,RB,20,b,d,a,0,3.01
8165,1,RB,21,b,j,b,1,0.9990000000000001
8165,1,RB,22,a,d,a,1,2.373
8165,1,RB,23,a,j,b,0,1.9240000000000002
8165,1,RB,24,a,j,b,0,1.051
8165,1,RB,25,b,d,a,0,1.608
8165,1,RB,26,b,j,b,1,2.388
8165,1,RB,27,a,j,b,0,2.9389999999999996
8165,1,RB,28,a,j,b,0,1.315
8165,1,RB,29,a,d,a,1,2.8989999999999996
8165,1,RB,30,a,d,a,1,1.469
8165,1,RB,31,a,d,a,1,1.264
8165,1,RB,32,a,j,b,0,2.2680000000000002
8165,1,RB,33,a,d,a,1,1.3259999999999998
8165,1,RB,34,a,d,a,1,1.023
8165,1,RB,35,b,j,b,1,0.9229999999999999
8165,1,RB,36,b,j,b,1,0.8440000000000001
8165,1,RB,37,b,j,b,1,2.8310000000000004
8165,1,RB,38,b,j,b,1,1.469
8165,1,RB,39,a,d,a,1,0.847
8165,1,RB,40,b,j,b,1,1.2990000000000002
8165,1,RB,41,b,d,a,0,3.804
8165,1,RB,42,a,d,a,1,2.49
8165,1,RB,43,a,j,b,0,0.7709999999999999
8165,1,RB,44,a,d,a,1,2.546
8165,1,RB,45,a,d,a,1,1.258
8165,1,RB,46,b,d,a,0,2.7489999999999997
8165,1,RB,47,b,j,b,1,1.579
8165,1,RB,48,a,d,a,1,2.218
8165,1,RB,49,b,d,a,0,1.9269999999999998
8165,1,RB,50,b,d,a,0,2.52
8165,1,RB,51,b,j,b,1,0.897
8165,1,RB,52,b,d,a,0,2.0580000000000003
8165,1,RB,53,b,j,b,1,1.565
8165,1,RB,54,a,d,a,1,0.98
8165,1,RB,55,b,j,b,1,0.955
8165,1,RB,56,a,d,a,1,3.299
8165,1,RB,57,b,j,b,1,0.7879999999999999
8165,1,RB,58,a,d,a,1,0.858
8165,1,RB,59,b,j,b,1,1.03
8165,1,RB,60,a,d,a,1,0.8190000000000001
8165,1,RB,61,b,j,b,1,0.8640000000000001
8165,1,RB,62,b,d,a,0,1.4509999999999998
8165,1,RB,63,a,d,a,1,1.383
8165,1,RB,64,a,d,a,1,0.6609999999999999
8165,1,RB,65,a,j,b,0,1.416
8165,1,RB,66,b,j,b,1,1.054
8165,1,RB,67,a,d,a,1,0.6990000000000001
8165,1,RB,68,b,d,a,0,3.011
8165,1,RB,69,b,j,b,1,1.264
8165,1,RB,70,b,d,a,0,1.3869999999999998
8165,1,RB,71,a,d,a,1,2.4019999999999997
8165,1,RB,72,a,d,a,1,1.983
8165,1,RB,73,b,d,a,0,3.133
8165,1,RB,74,a,d,a,1,0.925
8165,1,RB,75,b,j,b,1,0.486
8165,1,RB,76,a,d,a,1,0.8170000000000001
8165,1,RB,77,b,j,b,1,0.757
8165,1,RB,78,a,d,a,1,0.613
8165,1,RB,79,a,d,a,1,0.675
8165,1,RB,80,b,j,b,1,0.7040000000000001
8165,2,RB,81,a,d,a,1,0.5529999999999999
8165,2,RB,82,b,d,a,0,1.889
8165,2,RB,83,b,j,b,1,1.122
8165,2,RB,84,b,j,b,1,1.212
8165,2,RB,85,b,j,b,1,0.727
8165,2,RB,86,a,d,a,1,0.8959999999999999
8165,2,RB,87,b,d,a,0,1.882
8165,2,RB,88,b,j,b,1,0.902
8165,2,RB,89,b,d,a,0,0.758
8165,2,RB,90,a,d,a,1,0.63
8165,2,RB,91,b,j,b,1,0.603
8165,2,RB,92,b,d,a,0,3.0410000000000004
8165,2,RB,93,a,d,a,1,0.772
8165,2,RB,94,a,d,a,1,3.491
8165,2,RB,95,b,j,b,1,1.084
8165,2,RB,96,a,d,a,1,1.04
8165,2,RB,97,a,d,a,1,0.562
8165,2,RB,98,a,d,a,1,1.466
8165,2,RB,99,a,d,a,1,0.9329999999999999
8165,2,RB,100,b,j,b,1,0.461
8165,2,RB,101,b,j,b,1,0.625
8165,2,RB,102,a,j,b,0,0.43200000000000005
8165,2,RB,103,a,d,a,1,0.9229999999999999
8165,2,RB,104,a,d,a,1,1.571
8165,2,RB,105,b,j,b,1,0.794
8165,2,RB,106,b,j,b,1,0.552
8165,2,RB,107,a,d,a,1,1.689
8165,2,RB,108,a,j,b,0,2.0269999999999997
8165,2,RB,109,a,d,a,1,1.8
8165,2,RB,110,a,j,b,0,1.7009999999999998
8165,2,RB,111,a,j,b,0,1.23
8165,2,RB,112,a,d,a,1,1.6119999999999999
8165,2,RB,113,a,d,a,1,0.976
8165,2,RB,114,a,d,a,1,0.807
8165,2,RB,115,b,j,b,1,1.156
8165,2,RB,116,b,j,b,1,1.107
8165,2,RB,117,b,j,b,1,1.78
8165,2,RB,118,b,j,b,1,1.3780000000000001
8165,2,RB,119,a,d,a,1,0.866
8165,2,RB,120,b,j,b,1,1.124
8165,2,RB,121,b,j,b,1,2.085
8165,2,RB,122,a,d,a,1,0.727
8165,2,RB,123,a,j,b,0,1.097
8165,2,RB,124,a,d,a,1,0.8420000000000001
8165,2,RB,125,a,d,a,1,0.759
8165,2,RB,126,b,j,b,1,0.784
8165,2,RB,127,b,j,b,1,1.004
8165,2,RB,128,a,d,a,1,0.8190000000000001
8165,2,RB,129,b,d,a,0,1.625
8165,2,RB,130,b,j,b,1,1.405
8165,2,RB,131,b,j,b,1,1.139
8165,2,RB,132,b,d,a,0,1.186
8165,2,RB,133,b,j,b,1,0.802
8165,2,RB,134,a,d,a,1,0.696
8165,2,RB,135,b,j,b,1,0.706
8165,2,RB,136,a,d,a,1,0.907
8165,2,RB,137,b,j,b,1,0.996
8165,2,RB,138,a,d,a,1,3.338
8165,2,RB,139,b,d,a,0,3.05
8165,2,RB,140,a,j,b,0,1.486
8165,2,RB,141,b,j,b,1,0.7929999999999999
8165,2,RB,142,b,d,a,0,1.069
8165,2,RB,143,a,d,a,1,1.569
8165,2,RB,144,a,d,a,1,4.071000000000001
8165,2,RB,145,a,d,a,1,3.225
8165,2,RB,146,b,j,b,1,0.447
8165,2,RB,147,a,d,a,1,0.73
8165,2,RB,148,b,j,b,1,0.731
8165,2,RB,149,b,d,a,0,0.708
8165,2,RB,150,b,d,a,0,0.8290000000000001
8165,2,RB,151,a,d,a,1,1.09
8165,2,RB,152,a,d,a,1,0.995
8165,2,RB,153,b,d,a,0,1.193
8165,2,RB,154,a,d,a,1,1.208
8165,2,RB,155,b,d,a,0,2.028
8165,2,RB,156,a,d,a,1,1.3119999999999998
8165,2,RB,157,b,j,b,1,0.69
8165,2,RB,158,a,d,a,1,0.7559999999999999
8165,2,RB,159,a,d,a,1,0.6829999999999999
8165,2,RB,160,b,j,b,1,0.927
8165,3,RB,161,a,d,a,1,0.624
8165,3,RB,162,b,j,b,1,2.252
8165,3,RB,163,b,j,b,1,1.0070000000000001
8165,3,RB,164,b,j,b,1,1.077
8165,3,RB,165,b,d,a,0,1.087
8165,3,RB,166,a,d,a,1,0.537
8165,3,RB,167,b,j,b,1,1.099
8165,3,RB,168,b,d,a,0,1.1320000000000001
8165,3,RB,169,b,d,a,0,3.333
8165,3,RB,170,a,d,a,1,0.764
8165,3,RB,171,b,j,b,1,1.188
8165,3,RB,172,b,j,b,1,1.018
8165,3,RB,173,a,d,a,1,1.215
8165,3,RB,174,a,d,a,1,0.7490000000000001
8165,3,RB,175,b,d,a,0,4.709
8165,3,RB,176,a,d,a,1,0.573
8165,3,RB,177,a,d,a,1,0.74
8165,3,RB,178,a,d,a,1,0.755
8165,3,RB,179,a,d,a,1,0.588
8165,3,RB,180,b,j,b,1,1.251
8165,3,RB,181,b,j,b,1,0.622
8165,3,RB,182,a,d,a,1,1.0590000000000002
8165,3,RB,183,a,d,a,1,1.175
8165,3,RB,184,a,j,b,0,2.541
8165,3,RB,185,b,d,a,0,1.156
8165,3,RB,186,b,j,b,1,0.8270000000000001
8165,3,RB,187,a,d,a,1,1.048
8165,3,RB,188,a,d,a,1,1.756
8165,3,RB,189,a,d,a,1,1.371
8165,3,RB,190,a,d,a,1,2.7539999999999996
8165,3,RB,191,a,d,a,1,1.209
8165,3,RB,192,a,d,a,1,2.615
8165,3,RB,193,a,d,a,1,1.2429999999999999
8165,3,RB,194,a,d,a,1,1.959
8165,3,RB,195,b,j,b,1,2.39
8165,3,RB,196,b,j,b,1,2.211
8165,3,RB,197,b,j,b,1,0.8079999999999999
8165,3,RB,198,b,j,b,1,0.813
8165,3,RB,199,a,d,a,1,0.7070000000000001
8165,3,RB,200,b,j,b,1,2.077
8165,3,RB,201,b,j,b,1,2.11
8165,3,RB,202,a,d,a,1,0.759
8165,3,RB,203,a,d,a,1,0.9259999999999999
8165,3,RB,204,a,d,a,1,0.6729999999999999
8165,3,RB,205,a,d,a,1,0.698
8165,3,RB,206,b,d,a,0,1.565
8165,3,RB,207,b,d,a,0,0.731
8165,3,RB,208,a,d,a,1,0.748
8165,3,RB,209,b,j,b,1,1.7
8165,3,RB,210,b,j,b,1,0.8370000000000001
8165,3,RB,211,b,d,a,0,1.4669999999999999
8165,3,RB,212,b,j,b,1,1.885
8165,3,RB,213,b,j,b,1,2.648
8165,3,RB,214,a,d,a,1,0.764
8165,3,RB,215,b,j,b,1,1.035
8165,3,RB,216,a,d,a,1,1.199
8165,3,RB,217,b,j,b,1,1.189
8165,3,RB,218,a,d,a,1,0.6829999999999999
8165,3,RB,219,b,j,b,1,0.9179999999999999
8165,3,RB,220,a,d,a,1,0.92
8165,3,RB,221,b,j,b,1,0.833
8165,3,RB,222,b,d,a,0,1.534
8165,3,RB,223,a,d,a,1,1.093
8165,3,RB,224,a,d,a,1,0.696
8165,3,RB,225,a,d,a,1,0.723
8165,3,RB,226,b,d,a,0,0.9390000000000001
8165,3,RB,227,a,d,a,1,0.588
8165,3,RB,228,b,j,b,1,1.625
8165,3,RB,229,b,j,b,1,0.67
8165,3,RB,230,b,j,b,1,0.674
8165,3,RB,231,a,d,a,1,0.66
8165,3,RB,232,a,d,a,1,0.687
8165,3,RB,233,b,j,b,1,1.2429999999999999
8165,3,RB,234,a,d,a,1,0.654
8165,3,RB,235,b,d,a,0,0.5870000000000001
8165,3,RB,236,a,d,a,1,0.585
8165,3,RB,237,b,j,b,1,0.8390000000000001
8165,3,RB,238,a,d,a,1,0.628
8165,3,RB,239,a,d,a,1,0.7440000000000001
8165,3,RB,240,b,j,b,1,0.816
8171,1,II,1,a,d,a,1,3.965
8171,1,II,2,b,d,a,0,1.045
8171,1,II,3,b,d,a,0,0.665
8171,1,II,4,a,j,b,0,1.2919999999999998
8171,1,II,5,a,d,a,1,1.4469999999999998
8171,1,II,6,b,j,b,1,1.249
8171,1,II,7,b,d,a,0,0.846
8171,1,II,8,a,j,b,0,0.561
8171,1,II,9,b,d,a,0,2.449
8171,1,II,10,a,d,a,1,1.2109999999999999
8171,1,II,11,a,d,a,1,0.6890000000000001
8171,1,II,12,a,d,a,1,0.46799999999999997
8171,1,II,13,b,j,b,1,0.7509999999999999
8171,1,II,14,b,j,b,1,0.815
8171,1,II,15,b,j,b,1,0.8290000000000001
8171,1,II,16,a,j,b,0,1.321
8171,1,II,17,a,d,a,1,0.907
8171,1,II,18,b,d,a,0,1.435
8171,1,II,19,b,j,b,1,0.6729999999999999
8171,1,II,20,a,None,None,0,9999.0
8171,1,II,21,a,d,a,1,0.9670000000000001
8171,1,II,22,b,d,a,0,1.078
8171,1,II,23,a,j,b,0,0.945
8171,1,II,24,b,d,a,0,0.9209999999999999
8171,1,II,25,a,d,a,1,1.011
8171,1,II,26,a,j,b,0,1.055
8171,1,II,27,a,d,a,1,0.716
8171,1,II,28,b,d,a,0,0.716
8171,1,II,29,b,j,b,1,0.9420000000000001
8171,1,II,30,a,d,a,1,1.182
8171,1,II,31,b,j,b,1,1.028
8171,1,II,32,b,d,a,0,0.6809999999999999
8171,1,II,33,b,d,a,0,0.877
8171,1,II,34,a,d,a,1,0.662
8171,1,II,35,b,j,b,1,1.026
8171,1,II,36,a,d,a,1,0.782
8171,1,II,37,b,j,b,1,0.917
8171,1,II,38,b,d,a,0,0.9590000000000001
8171,1,II,39,a,j,b,0,0.742
8171,1,II,40,a,d,a,1,0.966
8171,1,II,41,b,d,a,0,0.828
8171,1,II,42,b,j,b,1,1.306
8171,1,II,43,a,j,b,0,4.2589999999999995
8171,1,II,44,b,j,b,1,0.9179999999999999
8171,1,II,45,a,d,a,1,0.782
8171,1,II,46,a,j,b,0,0.7809999999999999
8171,1,II,47,b,j,b,1,0.8029999999999999
8171,1,II,48,a,d,a,1,0.8420000000000001
8171,1,II,49,b,j,b,1,0.934
8171,1,II,50,b,j,b,1,0.7659999999999999
8171,1,II,51,b,d,a,0,0.8859999999999999
8171,1,II,52,a,d,a,1,1.081
8171,1,II,53,b,j,b,1,1.195
8171,1,II,54,b,j,b,1,0.953
8171,1,II,55,b,d,a,0,0.937
8171,1,II,56,a,d,a,1,0.802
8171,1,II,57,b,d,a,0,0.9109999999999999
8171,1,II,58,a,j,b,0,0.76
8171,1,II,59,b,j,b,1,1.032
8171,1,II,60,b,j,b,1,1.965
8171,1,II,61,a,d,a,1,0.684
8171,1,II,62,b,j,b,1,1.021
8171,1,II,63,b,d,a,0,1.2590000000000001
8171,1,II,64,a,j,b,0,1.4069999999999998
8171,1,II,65,a,j,b,0,0.78
8171,1,II,66,a,d,a,1,0.451
8171,1,II,67,a,d,a,1,1.1420000000000001
8171,1,II,68,a,d,a,1,1.102
8171,1,II,69,a,j,b,0,0.753
8171,1,II,70,a,d,a,1,0.785
8171,1,II,71,b,d,a,0,3.359
8171,1,II,72,b,j,b,1,1.0290000000000001
8171,1,II,73,a,d,a,1,0.738
8171,1,II,74,b,j,b,1,0.491
8171,1,II,75,a,j,b,0,1.669
8171,1,II,76,a,j,b,0,0.688
8171,1,II,77,a,d,a,1,0.419
8171,1,II,78,b,d,a,0,0.625
8171,1,II,79,a,j,b,0,0.428
8171,1,II,80,b,d,a,0,0.409
8171,2,II,81,a,j,b,0,0.311
8171,2,II,82,b,d,a,0,1.057
8171,2,II,83,b,d,a,0,0.708
8171,2,II,84,a,j,b,0,0.645
8171,2,II,85,a,j,b,0,0.8809999999999999
8171,2,II,86,b,d,a,0,1.724
8171,2,II,87,b,j,b,1,0.9390000000000001
8171,2,II,88,a,j,b,0,0.9159999999999999
8171,2,II,89,b,j,b,1,0.67
8171,2,II,90,a,d,a,1,0.945
8171,2,II,91,a,j,b,0,1.0
8171,2,II,92,a,d,a,1,0.856
8171,2,II,93,b,j,b,1,0.7390000000000001
8171,2,II,94,b,d,a,0,1.115
8171,2,II,95,b,j,b,1,0.387
8171,2,II,96,a,j,b,0,0.675
8171,2,II,97,a,d,a,1,0.287
8171,2,II,98,b,d,a,0,0.713
8171,2,II,99,b,d,a,0,0.634
8171,2,II,100,a,j,b,0,0.223
8171,2,II,101,a,j,b,0,0.253
8171,2,II,102,b,d,a,0,-0.032
8171,2,II,103,a,j,b,0,0.534
8171,2,II,104,b,j,b,1,0.27899999999999997
8171,2,II,105,a,j,b,0,0.298
8171,2,II,106,a,d,a,1,0.243
8171,2,II,107,a,d,a,1,0.256
8171,2,II,108,b,j,b,1,0.036000000000000004
8171,2,II,109,b,d,a,0,0.65
8171,2,II,110,a,j,b,0,0.244
8171,2,II,111,b,j,b,1,0.24100000000000002
8171,2,II,112,b,j,b,1,0.237
8171,2,II,113,b,j,b,1,0.225
8171,2,II,114,a,j,b,0,0.20600000000000002
8171,2,II,115,b,j,b,1,0.172
8171,2,II,116,a,j,b,0,0.307
8171,2,II,117,b,d,a,0,-0.217
8171,2,II,118,b,j,b,1,-0.221
8171,2,II,119,a,d,a,1,0.777
8171,2,II,120,a,d,a,1,0.96
8171,2,II,121,b,j,b,1,0.711
8171,2,II,122,b,d,a,0,1.744
8171,2,II,123,a,d,a,1,1.031
8171,2,II,124,b,d,a,0,1.348
8171,2,II,125,a,d,a,1,0.532
8171,2,II,126,a,j,b,0,0.757
8171,2,II,127,b,d,a,0,0.637
8171,2,II,128,a,d,a,1,1.345
8171,2,II,129,b,j,b,1,0.569
8171,2,II,130,b,d,a,0,0.384
8171,2,II,131,b,j,b,1,0.11900000000000001
8171,2,II,132,a,d,a,1,1.025
8171,2,II,133,b,d,a,0,1.27
8171,2,II,134,b,d,a,0,0.809
8171,2,II,135,b,j,b,1,0.542
8171,2,II,136,a,j,b,0,0.727
8171,2,II,137,b,d,a,0,2.958
8171,2,II,138,a,j,b,0,1.5730000000000002
8171,2,II,139,b,d,a,0,1.1079999999999999
8171,2,II,140,b,j,b,1,0.764
8171,2,II,141,a,j,b,0,0.98
8171,2,II,142,b,d,a,0,0.955
8171,2,II,143,b,j,b,1,2.187
8171,2,II,144,a,j,b,0,0.85
8171,2,II,145,a,d,a,1,0.8440000000000001
8171,2,II,146,a,d,a,1,0.7929999999999999
8171,2,II,147,a,d,a,1,1.359
8171,2,II,148,a,d,a,1,0.7509999999999999
8171,2,II,149,a,d,a,1,0.799
8171,2,II,150,a,j,b,0,0.82
8171,2,II,151,b,j,b,1,0.73
8171,2,II,152,b,j,b,1,0.506
8171,2,II,153,a,j,b,0,0.691
8171,2,II,154,b,d,a,0,0.43
8171,2,II,155,a,j,b,0,0.555
8171,2,II,156,a,d,a,1,0.27399999999999997
8171,2,II,157,a,d,a,1,0.565
8171,2,II,158,b,j,b,1,0.877
8171,2,II,159,a,j,b,0,0.599
8171,2,II,160,b,d,a,0,0.262
8171,3,II,161,a,d,a,1,0.24100000000000002
8171,3,II,162,b,d,a,0,0.43700000000000006
8171,3,II,163,b,j,b,1,0.17
8171,3,II,164,a,d,a,1,0.345
8171,3,II,165,a,j,b,0,0.355
8171,3,II,166,b,d,a,0,0.25
8171,3,II,167,b,d,a,0,0.223
8171,3,II,168,a,j,b,0,0.14
8171,3,II,169,b,d,a,0,1.764
8171,3,II,170,a,d,a,1,1.155
8171,3,II,171,a,d,a,1,1.915
8171,3,II,172,a,d,a,1,0.932
8171,3,II,173,b,j,b,1,0.99
8171,3,II,174,b,d,a,0,0.9940000000000001
8171,3,II,175,b,j,b,1,0.7440000000000001
8171,3,II,176,a,j,b,0,1.817
8171,3,II,177,a,j,b,0,0.47700000000000004
8171,3,II,178,b,j,b,1,0.35200000000000004
8171,3,II,179,b,d,a,0,0.424
8171,3,II,180,a,j,b,0,0.33299999999999996
8171,3,II,181,a,d,a,1,0.742
8171,3,II,182,b,d,a,0,0.693
8171,3,II,183,a,j,b,0,0.8240000000000001
8171,3,II,184,b,d,a,0,1.9969999999999999
8171,3,II,185,a,j,b,0,0.5379999999999999
8171,3,II,186,a,j,b,0,0.275
8171,3,II,187,a,d,a,1,0.8859999999999999
8171,3,II,188,b,j,b,1,0.8809999999999999
8171,3,II,189,b,j,b,1,0.595
8171,3,II,190,a,d,a,1,0.703
8171,3,II,191,b,d,a,0,0.659
8171,3,II,192,b,j,b,1,0.504
8171,3,II,193,b,j,b,1,1.416
8171,3,II,194,a,j,b,0,0.6940000000000001
8171,3,II,195,b,j,b,1,0.888
8171,3,II,196,a,j,b,0,0.882
8171,3,II,197,b,d,a,0,0.517
8171,3,II,198,b,j,b,1,0.43799999999999994
8171,3,II,199,a,d,a,1,0.33899999999999997
8171,3,II,200,a,j,b,0,0.499
8171,3,II,201,b,d,a,0,0.263
8171,3,II,202,b,j,b,1,0.04
8171,3,II,203,a,j,b,0,0.701
8171,3,II,204,b,d,a,0,0.48
8171,3,II,205,a,j,b,0,0.426
8171,3,II,206,a,j,b,0,1.167
8171,3,II,207,b,d,a,0,1.1909999999999998
8171,3,II,208,a,d,a,1,0.579
8171,3,II,209,b,d,a,0,0.42700000000000005
8171,3,II,210,b,j,b,1,0.256
8171,3,II,211,b,j,b,1,0.45299999999999996
8171,3,II,212,a,j,b,0,0.368
8171,3,II,213,b,d,a,0,0.215
8171,3,II,214,b,d,a,0,0.308
8171,3,II,215,b,d,a,0,0.525
8171,3,II,216,a,j,b,0,0.51
8171,3,II,217,b,d,a,0,0.43200000000000005
8171,3,II,218,a,j,b,0,0.436
8171,3,II,219,b,j,b,1,0.25
8171,3,II,220,b,d,a,0,0.43799999999999994
8171,3,II,221,a,j,b,0,0.203
8171,3,II,222,b,d,a,0,0.465
8171,3,II,223,b,j,b,1,0.308
8171,3,II,224,a,j,b,0,0.39
8171,3,II,225,a,d,a,1,0.124
8171,3,II,226,a,d,a,1,0.268
8171,3,II,227,a,j,b,0,0.425
8171,3,II,228,a,j,b,0,0.28600000000000003
8171,3,II,229,a,j,b,0,0.127
8171,3,II,230,a,j,b,0,0.161
8171,3,II,231,b,j,b,1,0.21600000000000003
8171,3,II,232,b,j,b,1,0.319
8171,3,II,233,a,d,a,1,0.377
8171,3,II,234,b,d,a,0,0.478
8171,3,II,235,a,j,b,0,0.265
8171,3,II,236,a,d,a,1,0.309
8171,3,II,237,a,d,a,1,0.301
8171,3,II,238,b,j,b,1,0.616
8171,3,II,239,a,d,a,1,1.0070000000000001
8171,3,II,240,b,j,b,1,0.387
8177,1,II,1,a,d,a,1,1.75
8177,1,II,2,a,d,a,1,0.5670000000000001
8177,1,II,3,a,d,a,1,0.415
8177,1,II,4,a,d,a,1,0.371
8177,1,II,5,a,d,a,1,0.42700000000000005
8177,1,II,6,a,d,a,1,0.408
8177,1,II,7,a,d,a,1,0.38
8177,1,II,8,a,d,a,1,0.40299999999999997
8177,1,II,9,b,d,a,0,0.48200000000000004
8177,1,II,10,b,j,b,1,0.46799999999999997
8177,1,II,11,b,j,b,1,0.41600000000000004
8177,1,II,12,b,j,b,1,1.03
8177,1,II,13,a,j,b,0,0.818
8177,1,II,14,b,d,a,0,0.679
8177,1,II,15,a,d,a,1,1.0659999999999998
8177,1,II,16,a,j,b,0,0.6609999999999999
8177,1,II,17,b,d,a,0,0.53
8177,1,II,18,a,j,b,0,1.4340000000000002
8177,1,II,19,b,d,a,0,0.461
8177,1,II,20,b,j,b,1,0.7929999999999999
8177,1,II,21,b,d,a,0,0.721
8177,1,II,22,b,j,b,1,0.609
8177,1,II,23,b,d,a,0,0.9990000000000001
8177,1,II,24,b,j,b,1,0.6920000000000001
8177,1,II,25,a,d,a,1,1.238
8177,1,II,26,b,d,a,0,0.547
8177,1,II,27,a,j,b,0,0.442
8177,1,II,28,a,d,a,1,0.502
8177,1,II,29,b,d,a,0,0.57
8177,1,II,30,b,j,b,1,0.552
8177,1,II,31,a,d,a,1,0.713
8177,1,II,32,a,j,b,0,0.419
8177,1,II,33,b,j,b,1,0.6940000000000001
8177,1,II,34,a,d,a,1,0.778
8177,1,II,35,b,j,b,1,1.008
8177,1,II,36,a,d,a,1,0.589
8177,1,II,37,b,j,b,1,0.603
8177,1,II,38,b,d,a,0,0.6579999999999999
8177,1,II,39,b,j,b,1,0.364
8177,1,II,40,a,d,a,1,0.764
8177,1,II,41,b,j,b,1,0.54
8177,1,II,42,a,j,b,0,0.475
8177,1,II,43,b,d,a,0,0.726
8177,1,II,44,b,j,b,1,0.575
8177,1,II,45,a,j,b,0,0.733
8177,1,II,46,a,d,a,1,0.5820000000000001
8177,1,II,47,b,j,b,1,0.8370000000000001
8177,1,II,48,b,d,a,0,0.77
8177,1,II,49,a,j,b,0,0.514
8177,1,II,50,b,d,a,0,0.8190000000000001
8177,1,II,51,a,j,b,0,0.41600000000000004
8177,1,II,52,a,d,a,1,0.573
8177,1,II,53,a,d,a,1,1.141
8177,1,II,54,b,j,b,1,0.772
8177,1,II,55,a,d,a,1,1.123
8177,1,II,56,a,d,a,1,0.715
8177,1,II,57,b,j,b,1,0.469
8177,1,II,58,b,j,b,1,0.441
8177,1,II,59,a,j,b,0,0.525
8177,1,II,60,a,d,a,1,0.597
8177,1,II,61,a,d,a,1,0.8029999999999999
8177,1,II,62,a,j,b,0,0.57
8177,1,II,63,b,d,a,0,0.35200000000000004
8177,1,II,64,b,j,b,1,0.505
8177,1,II,65,a,d,a,1,0.611
8177,1,II,66,b,j,b,1,0.608
8177,1,II,67,b,d,a,0,0.318
8177,1,II,68,b,j,b,1,0.44799999999999995
8177,1,II,69,a,j,b,0,0.32299999999999995
8177,1,II,70,a,d,a,1,0.7559999999999999
8177,1,II,71,a,j,b,0,0.556
8177,1,II,72,b,d,a,0,0.667
8177,1,II,73,a,d,a,1,1.358
8177,1,II,74,a,d,a,1,0.6940000000000001
8177,1,II,75,a,d,a,1,0.623
8177,1,II,76,b,d,a,0,0.772
8177,1,II,77,b,j,b,1,0.644
8177,1,II,78,b,j,b,1,0.655
8177,1,II,79,b,j,b,1,0.659
8177,1,II,80,b,d,a,0,0.5429999999999999
8177,2,II,81,a,j,b,0,0.358
8177,2,II,82,a,d,a,1,0.382
8177,2,II,83,a,j,b,0,0.47700000000000004
8177,2,II,84,a,d,a,1,1.4469999999999998
8177,2,II,85,a,d,a,1,0.5720000000000001
8177,2,II,86,a,j,b,0,0.555
8177,2,II,87,a,d,a,1,-0.214
8177,2,II,88,a,j,b,0,0.601
8177,2,II,89,b,d,a,0,0.5920000000000001
8177,2,II,90,b,j,b,1,0.597
8177,2,II,91,b,d,a,0,0.675
8177,2,II,92,b,j,b,1,0.7190000000000001
8177,2,II,93,a,j,b,0,0.655
8177,2,II,94,b,d,a,0,0.54
8177,2,II,95,a,j,b,0,0.636
8177,2,II,96,a,d,a,1,0.536
8177,2,II,97,b,d,a,0,0.9620000000000001
8177,2,II,98,a,j,b,0,0.425
8177,2,II,99,b,j,b,1,1.077
8177,2,II,100,b,j,b,1,1.272
8177,2,II,101,b,j,b,1,1.33
8177,2,II,102,b,j,b,1,0.643
8177,2,II,103,b,d,a,0,0.84
8177,2,II,104,b,j,b,1,0.28300000000000003
8177,2,II,105,a,j,b,0,0.35
8177,2,II,106,b,d,a,0,0.551
8177,2,II,107,a,j,b,0,0.8220000000000001
8177,2,II,108,a,j,b,0,0.6509999999999999
8177,2,II,109,b,d,a,0,0.4
8177,2,II,110,b,j,b,1,0.35700000000000004
8177,2,II,111,a,j,b,0,0.5489999999999999
8177,2,II,112,a,d,a,1,1.229
8177,2,II,113,b,j,b,1,0.8490000000000001
8177,2,II,114,a,d,a,1,0.765
8177,2,II,115,b,d,a,0,0.9329999999999999
8177,2,II,116,a,d,a,1,0.997
8177,2,II,117,b,j,b,1,0.612
8177,2,II,118,b,d,a,0,0.6990000000000001
8177,2,II,119,b,j,b,1,0.523
8177,2,II,120,a,d,a,1,0.652
8177,2,II,121,b,j,b,1,0.6970000000000001
8177,2,II,122,a,j,b,0,0.53
8177,2,II,123,b,d,a,0,0.483
8177,2,II,124,b,j,b,1,0.591
8177,2,II,125,a,j,b,0,0.995
8177,2,II,126,a,d,a,1,0.37
8177,2,II,127,b,j,b,1,0.6579999999999999
8177,2,II,128,b,j,b,1,0.596
8177,2,II,129,a,j,b,0,0.787
8177,2,II,130,b,d,a,0,0.5379999999999999
8177,2,II,131,a,j,b,0,0.586
8177,2,II,132,a,d,a,1,0.5770000000000001
8177,2,II,133,a,d,a,1,0.512
8177,2,II,134,b,j,b,1,1.151
8177,2,II,135,a,d,a,1,0.633
8177,2,II,136,a,d,a,1,0.9890000000000001
8177,2,II,137,b,j,b,1,0.579
8177,2,II,138,b,d,a,0,0.49
8177,2,II,139,a,j,b,0,1.276
8177,2,II,140,a,d,a,1,0.599
8177,2,II,141,a,d,a,1,0.741
8177,2,II,142,a,d,a,1,0.597
8177,2,II,143,b,d,a,0,0.619
8177,2,II,144,b,d,a,0,0.6809999999999999
8177,2,II,145,a,j,b,0,0.531
8177,2,II,146,b,j,b,1,0.6679999999999999
8177,2,II,147,b,j,b,1,0.703
8177,2,II,148,b,j,b,1,0.5770000000000001
8177,2,II,149,a,d,a,1,0.672
8177,2,II,150,a,d,a,1,0.675
8177,2,II,151,a,j,b,0,0.685
8177,2,II,152,b,d,a,0,0.46399999999999997
8177,2,II,153,a,j,b,0,0.86
8177,2,II,154,a,d,a,1,0.79
8177,2,II,155,a,j,b,0,0.645
8177,2,II,156,b,j,b,1,1.057
8177,2,II,157,b,j,b,1,1.1640000000000001
8177,2,II,158,b,d,a,0,0.8590000000000001
8177,2,II,159,b,j,b,1,0.486
8177,2,II,160,b,d,a,0,0.738
8177,3,II,161,a,j,b,0,0.419
8177,3,II,162,a,d,a,1,1.088
8177,3,II,163,a,d,a,1,0.883
8177,3,II,164,a,j,b,0,0.765
8177,3,II,165,a,d,a,1,0.47700000000000004
8177,3,II,166,a,d,a,1,0.679
8177,3,II,167,a,j,b,0,0.8109999999999999
8177,3,II,168,a,d,a,1,0.607
8177,3,II,169,b,d,a,0,0.597
8177,3,II,170,b,j,b,1,0.628
8177,3,II,171,b,j,b,1,1.3519999999999999
8177,3,II,172,b,d,a,0,1.2
8177,3,II,173,a,j,b,0,0.7490000000000001
8177,3,II,174,b,d,a,0,0.534
8177,3,II,175,a,j,b,0,1.854
8177,3,II,176,a,j,b,0,0.97
8177,3,II,177,b,d,a,0,0.546
8177,3,II,178,a,j,b,0,1.033
8177,3,II,179,b,j,b,1,1.374
8177,3,II,180,b,d,a,0,0.7
8177,3,II,181,b,j,b,1,0.518
8177,3,II,182,b,j,b,1,0.768
8177,3,II,183,b,j,b,1,0.327
8177,3,II,184,b,j,b,1,0.68
8177,3,II,185,a,j,b,0,0.34700000000000003
8177,3,II,186,b,d,a,0,0.34700000000000003
8177,3,II,187,a,j,b,0,0.371
8177,3,II,188,a,d,a,1,0.40299999999999997
8177,3,II,189,b,j,b,1,0.305
8177,3,II,190,b,d,a,0,0.778
8177,3,II,191,a,d,a,1,0.8490000000000001
8177,3,II,192,a,j,b,0,0.45299999999999996
8177,3,II,193,b,d,a,0,0.336
8177,3,II,194,a,d,a,1,0.6579999999999999
8177,3,II,195,b,d,a,0,0.42100000000000004
8177,3,II,196,a,d,a,1,0.6829999999999999
8177,3,II,197,b,j,b,1,0.565
8177,3,II,198,b,d,a,0,0.5489999999999999
8177,3,II,199,b,j,b,1,0.428
8177,3,II,200,a,d,a,1,0.386
8177,3,II,201,b,j,b,1,0.865
8177,3,II,202,a,j,b,0,0.5
8177,3,II,203,b,d,a,0,0.326
8177,3,II,204,b,j,b,1,0.38299999999999995
8177,3,II,205,a,d,a,1,0.606
8177,3,II,206,a,d,a,1,0.603
8177,3,II,207,b,d,a,0,0.617
8177,3,II,208,b,j,b,1,0.36700000000000005
8177,3,II,209,a,d,a,1,0.47700000000000004
8177,3,II,210,b,j,b,1,0.272
8177,3,II,211,a,d,a,1,0.316
8177,3,II,212,a,d,a,1,0.565
8177,3,II,213,a,d,a,1,0.348
8177,3,II,214,b,d,a,0,0.589
8177,3,II,215,a,j,b,0,0.307
8177,3,II,216,a,d,a,1,0.3
8177,3,II,217,b,d,a,0,0.47
8177,3,II,218,b,j,b,1,0.402
8177,3,II,219,a,d,a,1,0.20199999999999999
8177,3,II,220,a,j,b,0,0.39
8177,3,II,221,a,d,a,1,0.493
8177,3,II,222,a,d,a,1,0.27899999999999997
8177,3,II,223,b,d,a,0,0.321
8177,3,II,224,b,j,b,1,0.475
8177,3,II,225,a,d,a,1,-0.215
8177,3,II,226,b,d,a,0,0.517
8177,3,II,227,b,j,b,1,0.63
8177,3,II,228,b,j,b,1,0.37
8177,3,II,229,a,d,a,1,0.618
8177,3,II,230,a,d,a,1,0.526
8177,3,II,231,a,j,b,0,0.488
8177,3,II,232,b,j,b,1,0.523
8177,3,II,233,a,j,b,0,0.40299999999999997
8177,3,II,234,a,d,a,1,0.402
8177,3,II,235,a,d,a,1,0.544
8177,3,II,236,b,d,a,0,0.392
8177,3,II,237,b,j,b,1,0.51
8177,3,II,238,b,d,a,0,0.392
8177,3,II,239,b,j,b,1,0.45399999999999996
8177,3,II,240,b,d,a,0,0.634
8169,1,RB,1,b,d,a,0,3.948
8169,1,RB,2,b,j,b,1,1.218
8169,1,RB,3,b,j,b,1,1.016
8169,1,RB,4,a,d,a,1,0.605
8169,1,RB,5,a,j,b,0,0.539
8169,1,RB,6,b,j,b,1,1.324
8169,1,RB,7,a,d,a,1,3.085
8169,1,RB,8,a,j,b,0,0.958
8169,1,RB,9,a,d,a,1,2.67
8169,1,RB,10,a,j,b,0,1.504
8169,1,RB,11,b,j,b,1,0.586
8169,1,RB,12,a,j,b,0,3.697
8169,1,RB,13,b,d,a,0,1.601
8169,1,RB,14,a,j,b,0,2.8080000000000003
8169,1,RB,15,a,d,a,1,1.444
8169,1,RB,16,b,d,a,0,0.975
8169,1,RB,17,a,j,b,0,1.5819999999999999
8169,1,RB,18,a,d,a,1,1.092
8169,1,RB,19,b,d,a,0,3.062
8169,1,RB,20,a,None,None,0,9999.0
8169,1,RB,21,b,j,b,1,4.83
8169,1,RB,22,b,j,b,1,1.177
8169,1,RB,23,a,d,a,1,1.015
8169,1,RB,24,b,j,b,1,1.421
8169,1,RB,25,a,d,a,1,1.625
8169,1,RB,26,a,j,b,0,2.5980000000000003
8169,1,RB,27,b,d,a,0,4.379
8169,1,RB,28,a,j,b,0,1.169
8169,1,RB,29,b,j,b,1,1.193
8169,1,RB,30,a,j,b,0,2.549
8169,1,RB,31,b,j,b,1,2.452
8169,1,RB,32,a,d,a,1,1.112
8169,1,RB,33,a,j,b,0,0.785
8169,1,RB,34,b,j,b,1,1.625
8169,1,RB,35,b,d,a,0,1.3
8169,1,RB,36,a,d,a,1,0.91
8169,1,RB,37,a,j,b,0,0.624
8169,1,RB,38,b,j,b,1,1.556
8169,1,RB,39,a,d,a,1,2.1719999999999997
8169,1,RB,40,a,j,b,0,4.235
8169,1,RB,41,b,j,b,1,3.4139999999999997
8169,1,RB,42,b,d,a,0,1.5219999999999998
8169,1,RB,43,a,j,b,0,3.907
8169,1,RB,44,b,j,b,1,1.147
8169,1,RB,45,b,d,a,0,1.482
8169,1,RB,46,b,j,b,1,0.711
8169,1,RB,47,a,j,b,0,0.934
8169,1,RB,48,a,j,b,0,0.336
8169,1,RB,49,a,d,a,1,0.488
8169,1,RB,50,a,j,b,0,1.8659999999999999
8169,1,RB,51,b,d,a,0,3.822
8169,1,RB,52,a,j,b,0,1.706
8169,1,RB,53,b,j,b,1,1.395
8169,1,RB,54,b,j,b,1,0.866
8169,1,RB,55,b,d,a,0,1.501
8169,1,RB,56,b,j,b,1,1.43
8169,1,RB,57,b,d,a,0,1.3940000000000001
8169,1,RB,58,b,j,b,1,1.9369999999999998
8169,1,RB,59,b,j,b,1,2.441
8169,1,RB,60,a,j,b,0,1.621
8169,1,RB,61,a,d,a,1,0.93
8169,1,RB,62,a,d,a,1,3.298
8169,1,RB,63,a,j,b,0,1.051
8169,1,RB,64,b,j,b,1,0.9590000000000001
8169,1,RB,65,a,d,a,1,1.415
8169,1,RB,66,a,d,a,1,2.548
8169,1,RB,67,b,d,a,0,0.627
8169,1,RB,68,b,j,b,1,0.519
8169,1,RB,69,b,j,b,1,0.785
8169,1,RB,70,b,d,a,0,0.7040000000000001
8169,1,RB,71,b,j,b,1,0.6409999999999999
8169,1,RB,72,a,j,b,0,0.613
8169,1,RB,73,a,j,b,0,0.395
8169,1,RB,74,a,j,b,0,0.425
8169,1,RB,75,a,d,a,1,0.509
8169,1,RB,76,b,j,b,1,0.552
8169,1,RB,77,b,d,a,0,0.361
8169,1,RB,78,b,d,a,0,0.239
8169,1,RB,79,b,j,b,1,0.812
8169,1,RB,80,a,d,a,1,2.002
8169,2,RB,81,b,j,b,1,1.607
8169,2,RB,82,b,d,a,0,1.405
8169,2,RB,83,b,j,b,1,1.226
8169,2,RB,84,a,j,b,0,4.055
8169,2,RB,85,a,j,b,0,2.3369999999999997
8169,2,RB,86,b,d,a,0,1.17
8169,2,RB,87,a,d,a,1,1.808
8169,2,RB,88,a,d,a,1,1.9569999999999999
8169,2,RB,89,a,j,b,0,0.956
8169,2,RB,90,a,j,b,0,0.748
8169,2,RB,91,b,d,a,0,0.389
8169,2,RB,92,a,d,a,1,1.642
8169,2,RB,93,b,d,a,0,1.39
8169,2,RB,94,a,j,b,0,1.307
8169,2,RB,95,a,j,b,0,0.726
8169,2,RB,96,b,d,a,0,0.397
8169,2,RB,97,a,j,b,0,0.29100000000000004
8169,2,RB,98,a,d,a,1,0.478
8169,2,RB,99,b,j,b,1,1.281
8169,2,RB,100,a,d,a,1,0.363
8169,2,RB,101,b,j,b,1,0.299
8169,2,RB,102,b,d,a,0,0.397
8169,2,RB,103,a,j,b,0,0.275
8169,2,RB,104,b,j,b,1,0.23
8169,2,RB,105,a,d,a,1,0.33899999999999997
8169,2,RB,106,a,d,a,1,0.218
8169,2,RB,107,b,j,b,1,0.441
8169,2,RB,108,a,d,a,1,0.172
8169,2,RB,109,b,j,b,1,0.228
8169,2,RB,110,a,d,a,1,0.22399999999999998
8169,2,RB,111,b,j,b,1,0.293
8169,2,RB,112,a,d,a,1,0.335
8169,2,RB,113,a,j,b,0,0.305
8169,2,RB,114,b,j,b,1,0.81
8169,2,RB,115,b,d,a,0,0.696
8169,2,RB,116,a,j,b,0,0.266
8169,2,RB,117,a,j,b,0,3.029
8169,2,RB,118,b,d,a,0,0.498
8169,2,RB,119,a,j,b,0,1.251
8169,2,RB,120,a,j,b,0,0.855
8169,2,RB,121,b,j,b,1,0.6579999999999999
8169,2,RB,122,b,j,b,1,1.15
8169,2,RB,123,a,d,a,1,1.526
8169,2,RB,124,b,j,b,1,1.038
8169,2,RB,125,b,j,b,1,1.227
8169,2,RB,126,b,j,b,1,1.175
8169,2,RB,127,a,j,b,0,0.934
8169,2,RB,128,a,j,b,0,0.63
8169,2,RB,129,a,j,b,0,0.682
8169,2,RB,130,a,d,a,1,0.758
8169,2,RB,131,b,j,b,1,0.605
8169,2,RB,132,a,d,a,1,0.787
8169,2,RB,133,b,j,b,1,0.49700000000000005
8169,2,RB,134,b,j,b,1,0.515
8169,2,RB,135,b,j,b,1,0.501
8169,2,RB,136,b,j,b,1,0.47100000000000003
8169,2,RB,137,b,j,b,1,0.435
8169,2,RB,138,b,j,b,1,0.615
8169,2,RB,139,b,j,b,1,0.397
8169,2,RB,140,a,j,b,0,0.46799999999999997
8169,2,RB,141,a,d,a,1,0.687
8169,2,RB,142,a,d,a,1,0.514
8169,2,RB,143,a,d,a,1,0.467
8169,2,RB,144,b,j,b,1,0.511
8169,2,RB,145,a,d,a,1,0.504
8169,2,RB,146,a,j,b,0,0.467
8169,2,RB,147,b,j,b,1,0.484
8169,2,RB,148,b,j,b,1,0.43200000000000005
8169,2,RB,149,b,j,b,1,0.429
8169,2,RB,150,b,j,b,1,0.36200000000000004
8169,2,RB,151,b,j,b,1,0.401
8169,2,RB,152,a,j,b,0,0.408
8169,2,RB,153,a,d,a,1,0.637
8169,2,RB,154,a,d,a,1,0.769
8169,2,RB,155,a,d,a,1,0.41
8169,2,RB,156,b,j,b,1,0.391
8169,2,RB,157,b,j,b,1,0.45299999999999996
8169,2,RB,158,b,j,b,1,0.425
8169,2,RB,159,b,j,b,1,0.486
8169,2,RB,160,a,d,a,1,0.679
8169,3,RB,161,b,j,b,1,0.515
8169,3,RB,162,b,j,b,1,0.486
8169,3,RB,163,b,j,b,1,0.496
8169,3,RB,164,a,d,a,1,0.537
8169,3,RB,165,a,j,b,0,0.467
8169,3,RB,166,b,j,b,1,0.51
8169,3,RB,167,a,d,a,1,0.519
8169,3,RB,168,a,j,b,0,0.848
8169,3,RB,169,a,d,a,1,0.604
8169,3,RB,170,a,d,a,1,0.434
8169,3,RB,171,b,j,b,1,0.47100000000000003
8169,3,RB,172,a,d,a,1,0.48200000000000004
8169,3,RB,173,b,j,b,1,0.485
8169,3,RB,174,a,d,a,1,0.504
8169,3,RB,175,a,d,a,1,0.515
8169,3,RB,176,b,j,b,1,0.523
8169,3,RB,177,a,d,a,1,0.444
8169,3,RB,178,a,d,a,1,0.409
8169,3,RB,179,b,j,b,1,0.575
8169,3,RB,180,a,d,a,1,0.509
8169,3,RB,181,b,j,b,1,0.366
8169,3,RB,182,b,j,b,1,1.1340000000000001
8169,3,RB,183,a,d,a,1,0.51
8169,3,RB,184,b,j,b,1,0.344
8169,3,RB,185,a,d,a,1,0.43200000000000005
8169,3,RB,186,a,d,a,1,0.62
8169,3,RB,187,b,j,b,1,0.395
8169,3,RB,188,a,d,a,1,0.44799999999999995
8169,3,RB,189,b,j,b,1,0.564
8169,3,RB,190,a,d,a,1,0.58
8169,3,RB,191,b,j,b,1,0.507
8169,3,RB,192,a,d,a,1,0.41200000000000003
8169,3,RB,193,a,d,a,1,0.433
8169,3,RB,194,b,j,b,1,0.39799999999999996
8169,3,RB,195,b,j,b,1,0.517
8169,3,RB,196,a,d,a,1,0.5489999999999999
8169,3,RB,197,a,d,a,1,0.79
8169,3,RB,198,b,j,b,1,0.332
8169,3,RB,199,a,d,a,1,0.47600000000000003
8169,3,RB,200,a,d,a,1,0.607
8169,3,RB,201,b,j,b,1,0.597
8169,3,RB,202,b,j,b,1,0.419
8169,3,RB,203,a,d,a,1,0.528
8169,3,RB,204,b,j,b,1,0.42700000000000005
8169,3,RB,205,b,j,b,1,0.374
8169,3,RB,206,b,j,b,1,0.39
8169,3,RB,207,a,d,a,1,0.556
8169,3,RB,208,a,j,b,0,0.245
8169,3,RB,209,a,j,b,0,0.423
8169,3,RB,210,a,d,a,1,0.62
8169,3,RB,211,b,j,b,1,0.506
8169,3,RB,212,a,d,a,1,0.499
8169,3,RB,213,b,j,b,1,0.445
8169,3,RB,214,b,j,b,1,0.578
8169,3,RB,215,b,j,b,1,0.48
8169,3,RB,216,b,d,a,0,0.29100000000000004
8169,3,RB,217,b,j,b,1,0.7490000000000001
8169,3,RB,218,b,j,b,1,0.42200000000000004
8169,3,RB,219,b,j,b,1,0.371
8169,3,RB,220,a,d,a,1,0.531
8169,3,RB,221,a,d,a,1,0.531
8169,3,RB,222,a,d,a,1,0.691
8169,3,RB,223,a,d,a,1,0.486
8169,3,RB,224,b,j,b,1,0.46399999999999997
8169,3,RB,225,a,d,a,1,0.674
8169,3,RB,226,a,d,a,1,0.639
8169,3,RB,227,b,j,b,1,0.563
8169,3,RB,228,b,j,b,1,0.354
8169,3,RB,229,b,j,b,1,0.387
8169,3,RB,230,b,j,b,1,0.41
8169,3,RB,231,b,j,b,1,0.368
8169,3,RB,232,a,d,a,1,0.5579999999999999
8169,3,RB,233,a,d,a,1,0.45399999999999996
8169,3,RB,234,a,d,a,1,0.499
8169,3,RB,235,a,d,a,1,0.564
8169,3,RB,236,b,j,b,1,0.428
8169,3,RB,237,b,j,b,1,0.377
8169,3,RB,238,b,j,b,1,0.303
8169,3,RB,239,b,j,b,1,0.45
8169,3,RB,240,a,d,a,1,0.5329999999999999
8158,1,II,1,a,d,a,1,2.349
8158,1,II,2,a,d,a,1,0.7659999999999999
8158,1,II,3,a,d,a,1,0.541
8158,1,II,4,a,d,a,1,0.581
8158,1,II,5,b,d,a,0,0.38799999999999996
8158,1,II,6,b,d,a,0,0.7070000000000001
8158,1,II,7,b,j,b,1,1.044
8158,1,II,8,b,d,a,0,1.032
8158,1,II,9,a,d,a,1,1.3969999999999998
8158,1,II,10,b,j,b,1,0.97
8158,1,II,11,b,d,a,0,0.585
8158,1,II,12,a,d,a,1,1.0170000000000001
8158,1,II,13,b,j,b,1,0.774
8158,1,II,14,b,d,a,0,0.748
8158,1,II,15,b,j,b,1,1.5319999999999998
8158,1,II,16,b,j,b,1,0.828
8158,1,II,17,a,j,b,0,0.434
8158,1,II,18,a,j,b,0,1.103
8158,1,II,19,a,d,a,1,0.5920000000000001
8158,1,II,20,a,j,b,0,1.949
8158,1,II,21,b,d,a,0,1.949
8158,1,II,22,b,j,b,1,0.51
8158,1,II,23,b,j,b,1,0.542
8158,1,II,24,b,j,b,1,0.631
8158,1,II,25,b,d,a,0,0.603
8158,1,II,26,b,j,b,1,0.616
8158,1,II,27,a,j,b,0,1.031
8158,1,II,28,a,d,a,1,0.628
8158,1,II,29,a,j,b,0,1.103
8158,1,II,30,b,d,a,0,0.626
8158,1,II,31,b,j,b,1,0.431
8158,1,II,32,b,j,b,1,0.596
8158,1,II,33,b,j,b,1,0.537
8158,1,II,34,a,j,b,0,0.466
8158,1,II,35,a,d,a,1,0.485
8158,1,II,36,a,j,b,0,1.032
8158,1,II,37,a,j,b,0,0.83
8158,1,II,38,b,d,a,0,0.546
8158,1,II,39,a,j,b,0,0.39399999999999996
8158,1,II,40,a,d,a,1,0.465
8158,1,II,41,b,d,a,0,0.684
8158,1,II,42,b,j,b,1,0.6709999999999999
8158,1,II,43,a,j,b,0,0.49
8158,1,II,44,a,d,a,1,0.484
8158,1,II,45,a,d,a,1,0.5589999999999999
8158,1,II,46,b,d,a,0,0.895
8158,1,II,47,a,j,b,0,0.513
8158,1,II,48,b,d,a,0,-0.214
8158,1,II,49,b,d,a,0,0.7040000000000001
8158,1,II,50,b,j,b,1,0.594
8158,1,II,51,a,j,b,0,0.64
8158,1,II,52,b,d,a,0,0.31
8158,1,II,53,b,j,b,1,0.41600000000000004
8158,1,II,54,a,d,a,1,0.5
8158,1,II,55,b,j,b,1,0.358
8158,1,II,56,a,d,a,1,0.541
8158,1,II,57,b,j,b,1,0.59
8158,1,II,58,a,d,a,1,0.5329999999999999
8158,1,II,59,b,j,b,1,0.55
8158,1,II,60,a,d,a,1,0.389
8158,1,II,61,b,j,b,1,0.41100000000000003
8158,1,II,62,b,d,a,0,0.39299999999999996
8158,1,II,63,a,j,b,0,0.56
8158,1,II,64,a,j,b,0,0.38299999999999995
8158,1,II,65,b,j,b,1,0.318
8158,1,II,66,a,d,a,1,0.44
8158,1,II,67,a,j,b,0,0.57
8158,1,II,68,a,d,a,1,0.298
8158,1,II,69,a,j,b,0,0.358
8158,1,II,70,a,j,b,0,0.35700000000000004
8158,1,II,71,b,d,a,0,0.3
8158,1,II,72,a,j,b,0,0.35
8158,1,II,73,b,j,b,1,0.271
8158,1,II,74,a,j,b,0,0.39299999999999996
8158,1,II,75,a,d,a,1,0.56
8158,1,II,76,a,d,a,1,0.711
8158,1,II,77,b,d,a,0,2.504
8158,1,II,78,a,d,a,1,2.435
8158,1,II,79,b,d,a,0,0.5820000000000001
8158,1,II,80,b,j,b,1,0.429
8158,2,II,81,a,j,b,0,0.41700000000000004
8158,2,II,82,a,d,a,1,0.335
8158,2,II,83,a,j,b,0,0.503
8158,2,II,84,a,d,a,1,0.307
8158,2,II,85,b,j,b,1,0.428
8158,2,II,86,b,j,b,1,0.488
8158,2,II,87,b,j,b,1,0.34
8158,2,II,88,b,j,b,1,0.298
8158,2,II,89,a,j,b,0,0.293
8158,2,II,90,b,d,a,0,0.287
8158,2,II,91,b,j,b,1,0.276
8158,2,II,92,a,d,a,1,0.27699999999999997
8158,2,II,93,b,d,a,0,0.297
8158,2,II,94,b,d,a,0,0.235
8158,2,II,95,b,j,b,1,0.184
8158,2,II,96,b,j,b,1,0.278
8158,2,II,97,a,d,a,1,0.29
8158,2,II,98,a,j,b,0,0.244
8158,2,II,99,a,d,a,1,0.22399999999999998
8158,2,II,100,a,j,b,0,0.292
8158,2,II,101,b,d,a,0,0.431
8158,2,II,102,b,j,b,1,0.315
8158,2,II,103,b,j,b,1,0.33299999999999996
8158,2,II,104,b,j,b,1,0.774
8158,2,II,105,b,j,b,1,0.47700000000000004
8158,2,II,106,b,j,b,1,0.392
8158,2,II,107,a,j,b,0,0.342
8158,2,II,108,a,d,a,1,0.5660000000000001
8158,2,II,109,a,j,b,0,0.5489999999999999
8158,2,II,110,b,d,a,0,0.5
8158,2,II,111,b,j,b,1,0.35100000000000003
8158,2,II,112,b,j,b,1,0.327
8158,2,II,113,b,j,b,1,0.344
8158,2,II,114,a,j,b,0,0.41600000000000004
8158,2,II,115,a,j,b,0,0.446
8158,2,II,116,a,j,b,0,0.282
8158,2,II,117,a,j,b,0,0.276
8158,2,II,118,b,j,b,1,0.272
8158,2,II,119,a,j,b,0,0.37200000000000005
8158,2,II,120,a,d,a,1,0.316
8158,2,II,121,b,d,a,0,0.3
8158,2,II,122,b,j,b,1,0.358
8158,2,II,123,a,d,a,1,0.349
8158,2,II,124,a,j,b,0,0.35
8158,2,II,125,a,d,a,1,0.03
8158,2,II,126,b,j,b,1,0.515
8158,2,II,127,a,d,a,1,0.469
8158,2,II,128,b,j,b,1,0.607
8158,2,II,129,b,d,a,0,0.302
8158,2,II,130,b,d,a,0,0.431
8158,2,II,131,a,j,b,0,0.276
8158,2,II,132,b,j,b,1,0.231
8158,2,II,133,b,j,b,1,0.325
8158,2,II,134,a,j,b,0,0.293
8158,2,II,135,b,j,b,1,0.311
8158,2,II,136,a,d,a,1,0.248
8158,2,II,137,b,j,b,1,0.493
8158,2,II,138,a,d,a,1,0.312
8158,2,II,139,b,j,b,1,0.408
8158,2,II,140,a,j,b,0,0.638
8158,2,II,141,b,d,a,0,0.47600000000000003
8158,2,II,142,b,j,b,1,0.213
8158,2,II,143,a,j,b,0,0.299
8158,2,II,144,a,d,a,1,0.245
8158,2,II,145,b,d,a,0,0.465
8158,2,II,146,a,j,b,0,0.276
8158,2,II,147,a,d,a,1,0.368
8158,2,II,148,a,d,a,1,0.28800000000000003
8158,2,II,149,a,d,a,1,0.37799999999999995
8158,2,II,150,a,d,a,1,0.265
8158,2,II,151,b,d,a,0,0.925
8158,2,II,152,a,j,b,0,0.341
8158,2,II,153,b,j,b,1,0.052000000000000005
8158,2,II,154,a,j,b,0,0.48200000000000004
8158,2,II,155,a,j,b,0,0.33299999999999996
8158,2,II,156,a,j,b,0,0.31
8158,2,II,157,b,d,a,0,0.086
8158,2,II,158,a,d,a,1,0.066
8158,2,II,159,b,j,b,1,0.261
8158,2,II,160,b,d,a,0,0.138
8158,3,II,161,a,j,b,0,0.282
8158,3,II,162,a,j,b,0,0.22899999999999998
8158,3,II,163,a,j,b,0,0.266
8158,3,II,164,a,d,a,1,-0.083
8158,3,II,165,b,j,b,1,0.45
8158,3,II,166,b,j,b,1,1.2229999999999999
8158,3,II,167,b,j,b,1,0.444
8158,3,II,168,b,j,b,1,0.344
8158,3,II,169,a,j,b,0,0.32799999999999996
8158,3,II,170,b,d,a,0,0.306
8158,3,II,171,b,j,b,1,0.22699999999999998
8158,3,II,172,a,j,b,0,0.36
8158,3,II,173,b,d,a,0,-0.073
8158,3,II,174,b,d,a,0,0.03
8158,3,II,175,b,j,b,1,-0.14800000000000002
8158,3,II,176,b,j,b,1,-0.222
8158,3,II,177,a,j,b,0,0.47100000000000003
8158,3,II,178,a,d,a,1,0.132
8158,3,II,179,a,j,b,0,-0.214
8158,3,II,180,a,d,a,1,-0.19
8158,3,II,181,b,d,a,0,-0.10400000000000001
8158,3,II,182,b,d,a,0,0.325
8158,3,II,183,b,j,b,1,0.336
8158,3,II,184,b,j,b,1,0.44
8158,3,II,185,b,j,b,1,0.405
8158,3,II,186,b,d,a,0,0.428
8158,3,II,187,a,j,b,0,0.32
8158,3,II,188,a,j,b,0,0.264
8158,3,II,189,a,j,b,0,0.253
8158,3,II,190,b,j,b,1,0.249
8158,3,II,191,b,j,b,1,0.33299999999999996
8158,3,II,192,b,j,b,1,0.36700000000000005
8158,3,II,193,b,j,b,1,0.374
8158,3,II,194,a,j,b,0,0.7170000000000001
8158,3,II,195,a,j,b,0,0.613
8158,3,II,196,a,d,a,1,0.7240000000000001
8158,3,II,197,a,d,a,1,0.355
8158,3,II,198,b,d,a,0,0.332
8158,3,II,199,a,d,a,1,0.613
8158,3,II,200,a,d,a,1,0.355
8158,3,II,201,b,d,a,0,0.498
8158,3,II,202,b,d,a,0,0.789
8158,3,II,203,a,j,b,0,0.34
8158,3,II,204,a,d,a,1,-0.158
8158,3,II,205,a,d,a,1,0.434
8158,3,II,206,b,j,b,1,0.327
8158,3,II,207,a,d,a,1,0.46399999999999997
8158,3,II,208,b,d,a,0,0.33899999999999997
8158,3,II,209,b,j,b,1,0.387
8158,3,II,210,b,d,a,0,0.546
8158,3,II,211,a,j,b,0,0.531
8158,3,II,212,b,d,a,0,0.34700000000000003
8158,3,II,213,b,j,b,1,0.228
8158,3,II,214,a,j,b,0,0.465
8158,3,II,215,b,d,a,0,0.38799999999999996
8158,3,II,216,a,j,b,0,0.282
8158,3,II,217,b,d,a,0,0.278
8158,3,II,218,a,j,b,0,0.009000000000000001
8158,3,II,219,b,j,b,1,0.28600000000000003
8158,3,II,220,a,j,b,0,0.201
8158,3,II,221,b,j,b,1,0.391
8158,3,II,222,b,j,b,1,0.39799999999999996
8158,3,II,223,a,j,b,0,0.315
8158,3,II,224,a,d,a,1,0.341
8158,3,II,225,b,d,a,0,0.501
8158,3,II,226,a,j,b,0,0.39899999999999997
8158,3,II,227,a,d,a,1,0.382
8158,3,II,228,a,d,a,1,0.629
8158,3,II,229,a,d,a,1,0.546
8158,3,II,230,a,d,a,1,0.9129999999999999
8158,3,II,231,b,d,a,0,0.34700000000000003
8158,3,II,232,a,j,b,0,0.354
8158,3,II,233,b,j,b,1,-0.214
8158,3,II,234,a,j,b,0,0.6409999999999999
8158,3,II,235,a,d,a,1,0.485
8158,3,II,236,a,d,a,1,0.631
8158,3,II,237,b,d,a,0,0.445
8158,3,II,238,a,j,b,0,0.297
8158,3,II,239,b,j,b,1,0.22
8158,3,II,240,b,d,a,0,0.281
8172,1,RB,1,a,j,b,0,1.376
8172,1,RB,2,b,d,a,0,0.626
8172,1,RB,3,b,j,b,1,0.564
8172,1,RB,4,a,j,b,0,0.42700000000000005
8172,1,RB,5,b,d,a,0,0.552
8172,1,RB,6,a,d,a,1,0.7759999999999999
8172,1,RB,7,b,d,a,0,0.807
8172,1,RB,8,b,d,a,0,0.7490000000000001
8172,1,RB,9,a,j,b,0,0.7959999999999999
8172,1,RB,10,b,j,b,1,-0.207
8172,1,RB,11,a,j,b,0,1.097
8172,1,RB,12,b,d,a,0,1.578
8172,1,RB,13,b,j,b,1,0.745
8172,1,RB,14,b,j,b,1,1.6480000000000001
8172,1,RB,15,a,d,a,1,1.2930000000000001
8172,1,RB,16,a,d,a,1,1.4780000000000002
8172,1,RB,17,a,d,a,1,1.3530000000000002
8172,1,RB,18,a,d,a,1,1.905
8172,1,RB,19,b,d,a,0,1.4269999999999998
8172,1,RB,20,a,j,b,0,1.99
8172,1,RB,21,a,j,b,0,1.7409999999999999
8172,1,RB,22,a,d,a,1,0.204
8172,1,RB,23,b,d,a,0,2.227
8172,1,RB,24,b,j,b,1,0.15
8172,1,RB,25,a,j,b,0,0.446
8172,1,RB,26,a,d,a,1,-0.021
8172,1,RB,27,a,d,a,1,0.146
8172,1,RB,28,a,d,a,1,0.265
8172,1,RB,29,a,j,b,0,0.45299999999999996
8172,1,RB,30,b,d,a,0,0.306
8172,1,RB,31,a,d,a,1,0.114
8172,1,RB,32,b,d,a,0,0.324
8172,1,RB,33,a,j,b,0,-0.214
8172,1,RB,34,a,j,b,0,-0.223
8172,1,RB,35,b,j,b,1,1.666
8172,1,RB,36,a,d,a,1,1.205
8172,1,RB,37,b,j,b,1,1.099
8172,1,RB,38,a,d,a,1,1.268
8172,1,RB,39,a,j,b,0,0.927
8172,1,RB,40,b,d,a,0,1.064
8172,1,RB,41,b,j,b,1,0.40299999999999997
8172,1,RB,42,b,d,a,0,0.778
8172,1,RB,43,b,j,b,1,0.72
8172,1,RB,44,a,d,a,1,0.721
8172,1,RB,45,a,d,a,1,0.635
8172,1,RB,46,b,j,b,1,0.647
8172,1,RB,47,a,d,a,1,0.892
8172,1,RB,48,a,j,b,0,1.094
8172,1,RB,49,b,d,a,0,1.439
8172,1,RB,50,a,j,b,0,1.5719999999999998
8172,1,RB,51,b,d,a,0,1.5390000000000001
8172,1,RB,52,b,d,a,0,1.6909999999999998
8172,1,RB,53,a,j,b,0,0.252
8172,1,RB,54,a,j,b,0,0.313
8172,1,RB,55,b,j,b,1,0.39399999999999996
8172,1,RB,56,b,d,a,0,0.456
8172,1,RB,57,a,j,b,0,0.732
8172,1,RB,58,a,d,a,1,0.948
8172,1,RB,59,b,j,b,1,0.332
8172,1,RB,60,b,j,b,1,0.43700000000000006
8172,1,RB,61,b,j,b,1,0.539
8172,1,RB,62,a,j,b,0,0.539
8172,1,RB,63,b,d,a,0,0.21899999999999997
8172,1,RB,64,a,j,b,0,-0.214
8172,1,RB,65,a,j,b,0,-0.223
8172,1,RB,66,b,j,b,1,0.309
8172,1,RB,67,a,j,b,0,0.39799999999999996
8172,1,RB,68,b,d,a,0,0.245
8172,1,RB,69,b,j,b,1,-0.21600000000000003
8172,1,RB,70,a,j,b,0,-0.221
8172,1,RB,71,b,j,b,1,2.845
8172,1,RB,72,b,d,a,0,1.344
8172,1,RB,73,b,j,b,1,1.2890000000000001
8172,1,RB,74,b,d,a,0,1.035
8172,1,RB,75,a,j,b,0,1.175
8172,1,RB,76,a,d,a,1,1.6540000000000001
8172,1,RB,77,b,j,b,1,0.7609999999999999
8172,1,RB,78,a,d,a,1,1.2009999999999998
8172,1,RB,79,b,d,a,0,0.934
8172,1,RB,80,b,d,a,0,0.871
8172,2,RB,81,a,j,b,0,1.682
8172,2,RB,82,b,d,a,0,0.109
8172,2,RB,83,b,j,b,1,-0.201
8172,2,RB,84,a,j,b,0,0.37200000000000005
8172,2,RB,85,b,d,a,0,0.163
8172,2,RB,86,a,j,b,0,-0.021
8172,2,RB,87,b,j,b,1,1.617
8172,2,RB,88,b,d,a,0,1.183
8172,2,RB,89,a,j,b,0,0.414
8172,2,RB,90,b,j,b,1,0.345
8172,2,RB,91,a,j,b,0,0.858
8172,2,RB,92,b,j,b,1,2.582
8172,2,RB,93,b,j,b,1,1.636
8172,2,RB,94,b,d,a,0,0.32
8172,2,RB,95,a,j,b,0,0.066
8172,2,RB,96,a,d,a,1,1.133
8172,2,RB,97,a,j,b,0,1.574
8172,2,RB,98,a,d,a,1,0.7959999999999999
8172,2,RB,99,b,d,a,0,0.778
8172,2,RB,100,a,d,a,1,0.728
8172,2,RB,101,a,j,b,0,0.6409999999999999
8172,2,RB,102,a,j,b,0,1.022
8172,2,RB,103,b,j,b,1,1.099
8172,2,RB,104,b,j,b,1,0.604
8172,2,RB,105,a,d,a,1,0.53
8172,2,RB,106,a,d,a,1,0.602
8172,2,RB,107,a,d,a,1,0.625
8172,2,RB,108,a,d,a,1,0.7170000000000001
8172,2,RB,109,a,j,b,0,0.46299999999999997
8172,2,RB,110,b,j,b,1,0.523
8172,2,RB,111,a,j,b,0,0.6920000000000001
8172,2,RB,112,b,d,a,0,0.534
8172,2,RB,113,a,d,a,1,0.504
8172,2,RB,114,a,j,b,0,0.8009999999999999
8172,2,RB,115,b,j,b,1,1.238
8172,2,RB,116,a,d,a,1,0.723
8172,2,RB,117,b,j,b,1,0.6829999999999999
8172,2,RB,118,a,j,b,0,0.518
8172,2,RB,119,a,j,b,0,0.759
8172,2,RB,120,b,d,a,0,0.943
8172,2,RB,121,b,j,b,1,1.422
8172,2,RB,122,b,j,b,1,0.852
8172,2,RB,123,b,j,b,1,0.72
8172,2,RB,124,a,j,b,0,0.73
8172,2,RB,125,a,d,a,1,1.0090000000000001
8172,2,RB,126,b,j,b,1,1.175
8172,2,RB,127,a,d,a,1,0.701
8172,2,RB,128,a,j,b,0,0.799
8172,2,RB,129,b,d,a,0,0.887
8172,2,RB,130,a,j,b,0,0.9440000000000001
8172,2,RB,131,b,d,a,0,0.9840000000000001
8172,2,RB,132,b,j,b,1,1.166
8172,2,RB,133,a,j,b,0,0.774
8172,2,RB,134,a,j,b,0,1.3319999999999999
8172,2,RB,135,b,j,b,1,0.7809999999999999
8172,2,RB,136,b,d,a,0,0.7
8172,2,RB,137,a,j,b,0,0.7979999999999999
8172,2,RB,138,a,d,a,1,0.684
8172,2,RB,139,b,d,a,0,0.726
8172,2,RB,140,b,j,b,1,0.552
8172,2,RB,141,b,j,b,1,0.679
8172,2,RB,142,a,d,a,1,0.586
8172,2,RB,143,b,j,b,1,0.609
8172,2,RB,144,a,j,b,0,0.534
8172,2,RB,145,a,d,a,1,0.639
8172,2,RB,146,b,j,b,1,0.588
8172,2,RB,147,a,j,b,0,0.618
8172,2,RB,148,b,j,b,1,0.5670000000000001
8172,2,RB,149,b,d,a,0,0.239
8172,2,RB,150,a,j,b,0,-0.07
8172,2,RB,151,b,j,b,1,0.442
8172,2,RB,152,b,d,a,0,0.797
8172,2,RB,153,b,j,b,1,0.387
8172,2,RB,154,b,d,a,0,1.042
8172,2,RB,155,a,j,b,0,0.406
8172,2,RB,156,a,j,b,0,0.41100000000000003
8172,2,RB,157,b,j,b,1,0.409
8172,2,RB,158,a,j,b,0,0.526
8172,2,RB,159,b,d,a,0,0.527
8172,2,RB,160,b,j,b,1,0.7440000000000001
8172,3,RB,161,a,j,b,0,0.873
8172,3,RB,162,b,d,a,0,0.596
8172,3,RB,163,b,j,b,1,0.545
8172,3,RB,164,a,d,a,1,0.8420000000000001
8172,3,RB,165,b,j,b,1,0.927
8172,3,RB,166,a,d,a,1,1.022
8172,3,RB,167,b,d,a,0,0.603
8172,3,RB,168,b,j,b,1,1.537
8172,3,RB,169,a,d,a,1,1.122
8172,3,RB,170,b,j,b,1,1.5619999999999998
8172,3,RB,171,a,j,b,0,1.7690000000000001
8172,3,RB,172,b,j,b,1,1.08
8172,3,RB,173,b,d,a,0,0.9390000000000001
8172,3,RB,174,b,j,b,1,0.787
8172,3,RB,175,a,j,b,0,0.8420000000000001
8172,3,RB,176,a,d,a,1,0.966
8172,3,RB,177,a,j,b,0,0.716
8172,3,RB,178,a,d,a,1,1.0859999999999999
8172,3,RB,179,b,d,a,0,0.833
8172,3,RB,180,a,d,a,1,0.669
8172,3,RB,181,a,j,b,0,0.6970000000000001
8172,3,RB,182,a,j,b,0,0.6509999999999999
8172,3,RB,183,b,j,b,1,0.48700000000000004
8172,3,RB,184,b,d,a,0,0.313
8172,3,RB,185,a,j,b,0,-0.14800000000000002
8172,3,RB,186,a,j,b,0,0.209
8172,3,RB,187,a,d,a,1,0.327
8172,3,RB,188,a,d,a,1,0.536
8172,3,RB,189,a,d,a,1,0.56
8172,3,RB,190,b,d,a,0,0.624
8172,3,RB,191,a,j,b,0,0.597
8172,3,RB,192,b,d,a,0,0.251
8172,3,RB,193,a,d,a,1,0.27899999999999997
8172,3,RB,194,a,j,b,0,1.018
8172,3,RB,195,b,d,a,0,0.7509999999999999
8172,3,RB,196,a,j,b,0,0.375
8172,3,RB,197,b,d,a,0,0.502
8172,3,RB,198,a,j,b,0,0.424
8172,3,RB,199,a,d,a,1,0.884
8172,3,RB,200,b,d,a,0,1.63
8172,3,RB,201,b,j,b,1,0.509
8172,3,RB,202,b,j,b,1,0.525
8172,3,RB,203,b,j,b,1,2.1180000000000003
8172,3,RB,204,a,j,b,0,0.622
8172,3,RB,205,a,d,a,1,0.6920000000000001
8172,3,RB,206,b,j,b,1,0.726
8172,3,RB,207,a,d,a,1,0.6459999999999999
8172,3,RB,208,a,j,b,0,0.787
8172,3,RB,209,b,d,a,0,0.8740000000000001
8172,3,RB,210,a,j,b,0,0.74
8172,3,RB,211,b,d,a,0,0.54
8172,3,RB,212,b,j,b,1,0.461
8172,3,RB,213,a,j,b,0,0.616
8172,3,RB,214,a,d,a,1,0.757
8172,3,RB,215,b,d,a,0,0.557
8172,3,RB,216,b,j,b,1,0.41100000000000003
8172,3,RB,217,a,d,a,1,0.9690000000000001
8172,3,RB,218,a,j,b,0,0.937
8172,3,RB,219,b,j,b,1,0.945
8172,3,RB,220,b,d,a,0,0.897
8172,3,RB,221,b,j,b,1,0.85
8172,3,RB,222,a,j,b,0,-0.214
8172,3,RB,223,b,f,invalid key,0,0.389
8172,3,RB,224,a,j,b,0,1.547
8172,3,RB,225,a,j,b,0,0.675
8172,3,RB,226,b,j,b,1,0.534
8172,3,RB,227,a,j,b,0,0.894
8172,3,RB,228,b,d,a,0,0.784
8172,3,RB,229,b,d,a,0,0.5670000000000001
8172,3,RB,230,a,j,b,0,-0.214
8172,3,RB,231,b,j,b,1,0.621
8172,3,RB,232,b,d,a,0,0.6509999999999999
8172,3,RB,233,b,j,b,1,0.606
8172,3,RB,234,b,d,a,0,0.58
8172,3,RB,235,a,j,b,0,0.995
8172,3,RB,236,a,d,a,1,0.264
8172,3,RB,237,b,j,b,1,-0.027999999999999997
8172,3,RB,238,a,j,b,0,-0.085
8172,3,RB,239,b,d,a,0,-0.221
8172,3,RB,240,b,j,b,1,-0.222
8167,1,RB,1,a,j,b,0,2.385
8167,1,RB,2,b,d,a,0,0.599
8167,1,RB,3,a,d,a,1,0.693
8167,1,RB,4,b,j,b,1,0.695
8167,1,RB,5,a,j,b,0,0.466
8167,1,RB,6,a,d,a,1,0.716
8167,1,RB,7,b,j,b,1,1.518
8167,1,RB,8,b,d,a,0,0.6859999999999999
8167,1,RB,9,b,d,a,0,0.618
8167,1,RB,10,b,j,b,1,0.384
8167,1,RB,11,a,j,b,0,0.885
8167,1,RB,12,b,j,b,1,0.5770000000000001
8167,1,RB,13,a,d,a,1,0.568
8167,1,RB,14,b,j,b,1,0.958
8167,1,RB,15,a,d,a,1,0.758
8167,1,RB,16,b,d,a,0,0.966
8167,1,RB,17,b,j,b,1,0.597
8167,1,RB,18,b,d,a,0,0.9
8167,1,RB,19,b,d,a,0,1.294
8167,1,RB,20,b,j,b,1,0.8390000000000001
8167,1,RB,21,a,j,b,0,1.156
8167,1,RB,22,b,j,b,1,0.5379999999999999
8167,1,RB,23,a,d,a,1,0.795
8167,1,RB,24,a,j,b,0,1.177
8167,1,RB,25,b,d,a,0,0.5589999999999999
8167,1,RB,26,a,d,a,1,0.583
8167,1,RB,27,b,d,a,0,0.758
8167,1,RB,28,a,d,a,1,2.005
8167,1,RB,29,a,j,b,0,0.698
8167,1,RB,30,a,d,a,1,0.66
8167,1,RB,31,a,d,a,1,0.56
8167,1,RB,32,a,j,b,0,1.4780000000000002
8167,1,RB,33,b,d,a,0,0.474
8167,1,RB,34,a,j,b,0,0.684
8167,1,RB,35,a,d,a,1,0.695
8167,1,RB,36,b,d,a,0,1.4409999999999998
8167,1,RB,37,a,j,b,0,0.66
8167,1,RB,38,a,d,a,1,0.5670000000000001
8167,1,RB,39,a,d,a,1,0.752
8167,1,RB,40,b,j,b,1,2.278
8167,1,RB,41,a,d,a,1,1.145
8167,1,RB,42,a,d,a,1,1.295
8167,1,RB,43,b,j,b,1,0.883
8167,1,RB,44,a,j,b,0,1.006
8167,1,RB,45,a,d,a,1,0.491
8167,1,RB,46,b,d,a,0,1.189
8167,1,RB,47,b,j,b,1,1.618
8167,1,RB,48,b,d,a,0,1.5930000000000002
8167,1,RB,49,b,j,b,1,0.741
8167,1,RB,50,b,j,b,1,0.909
8167,1,RB,51,a,d,a,1,1.2309999999999999
8167,1,RB,52,a,j,b,0,1.091
8167,1,RB,53,b,j,b,1,0.958
8167,1,RB,54,a,d,a,1,0.7959999999999999
8167,1,RB,55,b,j,b,1,0.9229999999999999
8167,1,RB,56,b,j,b,1,0.708
8167,1,RB,57,a,j,b,0,1.0759999999999998
8167,1,RB,58,a,d,a,1,0.496
8167,1,RB,59,a,d,a,1,1.168
8167,1,RB,60,a,d,a,1,0.929
8167,1,RB,61,a,j,b,0,0.945
8167,1,RB,62,a,d,a,1,1.0090000000000001
8167,1,RB,63,b,j,b,1,0.9590000000000001
8167,1,RB,64,a,d,a,1,1.101
8167,1,RB,65,b,j,b,1,1.464
8167,1,RB,66,b,j,b,1,1.146
8167,1,RB,67,b,d,a,0,0.9059999999999999
8167,1,RB,68,b,j,b,1,0.38
8167,1,RB,69,a,j,b,0,1.026
8167,1,RB,70,b,j,b,1,0.575
8167,1,RB,71,b,d,a,0,1.982
8167,1,RB,72,b,j,b,1,0.628
8167,1,RB,73,b,d,a,0,1.137
8167,1,RB,74,a,d,a,1,0.9209999999999999
8167,1,RB,75,a,d,a,1,1.042
8167,1,RB,76,a,d,a,1,1.206
8167,1,RB,77,a,j,b,0,0.778
8167,1,RB,78,b,j,b,1,0.65
8167,1,RB,79,b,j,b,1,0.541
8167,1,RB,80,b,j,b,1,0.718
8167,2,RB,81,a,d,a,1,1.024
8167,2,RB,82,b,j,b,1,1.084
8167,2,RB,83,a,d,a,1,0.943
8167,2,RB,84,b,j,b,1,0.894
8167,2,RB,85,a,d,a,1,0.752
8167,2,RB,86,a,d,a,1,0.8009999999999999
8167,2,RB,87,b,j,b,1,0.5579999999999999
8167,2,RB,88,b,j,b,1,0.6940000000000001
8167,2,RB,89,b,j,b,1,0.753
8167,2,RB,90,b,j,b,1,0.639
8167,2,RB,91,a,d,a,1,0.5720000000000001
8167,2,RB,92,b,j,b,1,0.795
8167,2,RB,93,a,d,a,1,0.617
8167,2,RB,94,b,j,b,1,0.63
8167,2,RB,95,a,d,a,1,0.747
8167,2,RB,96,b,j,b,1,0.7070000000000001
8167,2,RB,97,b,j,b,1,0.596
8167,2,RB,98,b,j,b,1,0.531
8167,2,RB,99,b,j,b,1,0.6509999999999999
8167,2,RB,100,b,j,b,1,0.519
8167,2,RB,101,a,d,a,1,0.545
8167,2,RB,102,b,j,b,1,0.7040000000000001
8167,2,RB,103,a,d,a,1,0.578
8167,2,RB,104,a,d,a,1,0.657
8167,2,RB,105,b,j,b,1,0.6759999999999999
8167,2,RB,106,a,d,a,1,0.511
8167,2,RB,107,b,j,b,1,0.633
8167,2,RB,108,a,d,a,1,0.612
8167,2,RB,109,a,d,a,1,0.578
8167,2,RB,110,a,d,a,1,0.7290000000000001
8167,2,RB,111,a,d,a,1,0.522
8167,2,RB,112,a,d,a,1,0.475
8167,2,RB,113,b,j,b,1,0.7020000000000001
8167,2,RB,114,a,d,a,1,0.8240000000000001
8167,2,RB,115,a,d,a,1,0.6920000000000001
8167,2,RB,116,b,j,b,1,0.511
8167,2,RB,117,a,j,b,0,0.815
8167,2,RB,118,a,d,a,1,0.429
8167,2,RB,119,a,d,a,1,0.594
8167,2,RB,120,b,j,b,1,0.8640000000000001
8167,2,RB,121,a,d,a,1,0.883
8167,2,RB,122,a,d,a,1,1.3259999999999998
