Subject,Type,Block,Trial,Category,KEY,RESP,Accuracy,RT
8077,II,1,1,b,j,b,1,1.89
8077,II,1,2,a,j,b,0,0.7559999999999999
8077,II,1,3,a,d,a,1,1.5319999999999998
8077,II,1,4,b,d,a,0,0.754
8077,II,1,5,a,j,b,0,1.219
8077,II,1,6,a,j,b,0,2.262
8077,II,1,7,b,j,b,1,1.8730000000000002
8077,II,1,8,b,j,b,1,1.5859999999999999
8077,II,1,9,b,d,a,0,0.745
8077,II,1,10,b,j,b,1,0.696
8077,II,1,11,a,j,b,0,0.6729999999999999
8077,II,1,12,a,d,a,1,2.546
8077,II,1,13,a,d,a,1,0.617
8077,II,1,14,b,j,b,1,1.6059999999999999
8077,II,1,15,b,j,b,1,0.907
8077,II,1,16,b,d,a,0,0.611
8077,II,1,17,b,d,a,0,1.5530000000000002
8077,II,1,18,a,j,b,0,0.9520000000000001
8077,II,1,19,a,j,b,0,0.679
8077,II,1,20,b,j,b,1,0.897
8077,II,1,21,b,d,a,0,0.897
8077,II,1,22,a,d,a,1,1.435
8077,II,1,23,b,d,a,0,1.1440000000000001
8077,II,1,24,a,j,b,0,0.67
8077,II,1,25,b,d,a,0,0.585
8077,II,1,26,b,j,b,1,1.287
8077,II,1,27,b,d,a,0,2.177
8077,II,1,28,b,d,a,0,0.614
8077,II,1,29,b,d,a,0,0.38
8077,II,1,30,a,j,b,0,0.537
8077,II,1,31,a,j,b,0,0.505
8077,II,1,32,a,j,b,0,0.54
8077,II,1,33,a,j,b,0,0.491
8077,II,1,34,a,j,b,0,0.807
8077,II,1,35,a,d,a,1,0.53
8077,II,1,36,b,j,b,1,0.642
8077,II,1,37,b,j,b,1,0.613
8077,II,1,38,a,d,a,1,0.40299999999999997
8077,II,1,39,a,d,a,1,0.376
8077,II,1,40,b,j,b,1,0.439
8077,II,1,41,b,d,a,0,0.29
8077,II,1,42,a,j,b,0,0.332
8077,II,1,43,a,j,b,0,1.2919999999999998
8077,II,1,44,a,d,a,1,0.0
8077,II,1,45,a,d,a,1,0.9
8077,II,1,46,b,j,b,1,0.501
8077,II,1,47,a,d,a,1,0.525
8077,II,1,48,a,j,b,0,0.462
8077,II,1,49,b,j,b,1,0.912
8077,II,1,50,a,d,a,1,0.465
8077,II,1,51,a,j,b,0,0.38799999999999996
8077,II,1,52,b,j,b,1,0.546
8077,II,1,53,a,d,a,1,0.33
8077,II,1,54,b,j,b,1,0.418
8077,II,1,55,b,d,a,0,0.303
8077,II,1,56,a,d,a,1,0.273
8077,II,1,57,b,j,b,1,0.402
8077,II,1,58,b,j,b,1,0.431
8077,II,1,59,b,d,a,0,0.35600000000000004
8077,II,1,60,a,d,a,1,1.033
8077,II,1,61,b,j,b,1,0.013999999999999999
8077,II,1,62,b,d,a,0,0.252
8077,II,1,63,a,d,a,1,0.415
8077,II,1,64,a,j,b,0,0.34700000000000003
8077,II,1,65,b,j,b,1,0.355
8077,II,1,66,a,d,a,1,0.9640000000000001
8077,II,1,67,a,d,a,1,0.48100000000000004
8077,II,1,68,b,d,a,0,0.42700000000000005
8077,II,1,69,b,d,a,0,0.336
8077,II,1,70,b,j,b,1,0.488
8077,II,1,71,a,j,b,0,0.474
8077,II,1,72,b,j,b,1,0.301
8077,II,1,73,a,d,a,1,0.23
8077,II,1,74,a,j,b,0,0.489
8077,II,1,75,a,j,b,0,0.26
8077,II,1,76,b,d,a,0,0.038
8077,II,1,77,b,d,a,0,0.826
8077,II,1,78,b,d,a,0,0.366
8077,II,1,79,a,j,b,0,0.285
8077,II,1,80,a,j,b,0,0.376
8123,II,3,1,a,d,a,1,0.0
8123,II,3,2,b,j,b,1,0.7609999999999999
8123,II,3,3,b,j,b,1,0.623
8123,II,3,4,b,j,b,1,0.45899999999999996
8123,II,3,5,b,d,a,0,1.006
8123,II,3,6,a,j,b,0,0.762
8123,II,3,7,a,d,a,1,0.753
8123,II,3,8,b,j,b,1,1.073
8123,II,3,9,b,j,b,1,0.586
8123,II,3,10,a,d,a,1,0.7609999999999999
8123,II,3,11,a,d,a,1,0.768
8123,II,3,12,a,d,a,1,0.598
8123,II,3,13,b,j,b,1,0.556
8123,II,3,14,a,d,a,1,0.866
8123,II,3,15,b,j,b,1,0.612
8123,II,3,16,b,j,b,1,0.7140000000000001
8123,II,3,17,a,j,b,0,1.0190000000000001
8123,II,3,18,b,j,b,1,0.639
8123,II,3,19,b,j,b,1,0.578
8123,II,3,20,a,d,a,1,0.943
8123,II,3,21,b,j,b,1,0.7829999999999999
8123,II,3,22,b,j,b,1,0.598
8123,II,3,23,b,j,b,1,0.426
8123,II,3,24,a,j,b,0,0.423
8123,II,3,25,a,d,a,1,0.7240000000000001
8123,II,3,26,a,j,b,0,0.531
8123,II,3,27,a,d,a,1,0.507
8123,II,3,28,a,d,a,1,0.7090000000000001
8123,II,3,29,a,d,a,1,0.588
8123,II,3,30,a,j,b,0,0.7140000000000001
8123,II,3,31,b,j,b,1,0.747
8123,II,3,32,a,j,b,0,0.498
8123,II,3,33,b,d,a,0,0.5
8123,II,3,34,a,j,b,0,0.5660000000000001
8123,II,3,35,a,j,b,0,0.667
8123,II,3,36,b,d,a,0,0.7190000000000001
8123,II,3,37,b,j,b,1,0.759
8123,II,3,38,b,d,a,0,3.045
8123,II,3,39,a,d,a,1,0.8490000000000001
8123,II,3,40,a,j,b,0,0.723
8123,II,3,41,b,j,b,1,0.636
8123,II,3,42,a,j,b,0,0.711
8123,II,3,43,b,d,a,0,0.46399999999999997
8123,II,3,44,a,d,a,1,0.636
8123,II,3,45,a,d,a,1,0.42200000000000004
8123,II,3,46,a,d,a,1,0.379
8123,II,3,47,b,j,b,1,0.53
8123,II,3,48,b,j,b,1,1.122
8123,II,3,49,a,j,b,0,0.738
8123,II,3,50,b,j,b,1,0.77
8123,II,3,51,b,j,b,1,0.639
8123,II,3,52,a,d,a,1,0.9159999999999999
8123,II,3,53,a,d,a,1,1.2209999999999999
8123,II,3,54,b,d,a,0,0.688
8123,II,3,55,b,d,a,0,1.442
8123,II,3,56,a,j,b,0,0.66
8123,II,3,57,a,d,a,1,0.632
8123,II,3,58,a,d,a,1,0.7959999999999999
8123,II,3,59,b,j,b,1,0.593
8123,II,3,60,a,d,a,1,0.599
8123,II,3,61,b,j,b,1,0.877
8123,II,3,62,a,j,b,0,0.7340000000000001
8123,II,3,63,b,d,a,0,0.759
8123,II,3,64,b,j,b,1,0.7659999999999999
8123,II,3,65,a,d,a,1,0.6759999999999999
8123,II,3,66,b,j,b,1,0.5820000000000001
8123,II,3,67,a,d,a,1,0.604
8123,II,3,68,a,j,b,0,0.5529999999999999
8123,II,3,69,b,d,a,0,0.7609999999999999
8123,II,3,70,b,j,b,1,1.567
8123,II,3,71,b,j,b,1,0.606
8123,II,3,72,a,j,b,0,0.627
8123,II,3,73,b,d,a,0,0.894
8123,II,3,74,a,j,b,0,0.591
8123,II,3,75,b,d,a,0,0.71
8123,II,3,76,a,d,a,1,0.718
8123,II,3,77,b,d,a,0,0.5579999999999999
8123,II,3,78,b,j,b,1,1.03
8123,II,3,79,a,d,a,1,0.625
8123,II,3,80,b,j,b,1,0.581
8131,RB,1,1,a,j,b,0,1.4080000000000001
8131,RB,1,2,b,j,b,1,0.862
8131,RB,1,3,b,d,a,0,0.858
8131,RB,1,4,a,j,b,0,0.924
8131,RB,1,5,b,d,a,0,0.6920000000000001
8131,RB,1,6,b,j,b,1,0.605
8131,RB,1,7,b,j,b,1,1.2109999999999999
8131,RB,1,8,b,j,b,1,0.575
8131,RB,1,9,b,d,a,0,1.588
8131,RB,1,10,a,d,a,1,0.555
8131,RB,1,11,a,j,b,0,0.706
8131,RB,1,12,a,j,b,0,0.8190000000000001
8131,RB,1,13,a,d,a,1,0.512
8131,RB,1,14,b,j,b,1,0.953
8131,RB,1,15,a,d,a,1,0.721
8131,RB,1,16,b,d,a,0,0.546
8131,RB,1,17,b,j,b,1,2.144
8131,RB,1,18,b,d,a,0,1.8230000000000002
8131,RB,1,19,b,j,b,1,1.115
8131,RB,1,20,a,d,a,1,2.1719999999999997
8131,RB,1,21,b,d,a,0,0.6579999999999999
8131,RB,1,22,b,j,b,1,0.581
8131,RB,1,23,a,d,a,1,0.5870000000000001
8131,RB,1,24,a,d,a,1,0.657
8131,RB,1,25,b,j,b,1,0.0
8131,RB,1,26,b,j,b,1,2.226
8131,RB,1,27,a,d,a,1,1.205
8131,RB,1,28,a,d,a,1,0.563
8131,RB,1,29,b,j,b,1,0.785
8131,RB,1,30,b,j,b,1,0.583
8131,RB,1,31,b,j,b,1,1.453
8131,RB,1,32,a,j,b,0,1.4080000000000001
8131,RB,1,33,a,d,a,1,1.021
8131,RB,1,34,b,j,b,1,0.8809999999999999
8131,RB,1,35,a,d,a,1,1.331
8131,RB,1,36,b,d,a,0,1.234
8131,RB,1,37,a,j,b,0,0.8320000000000001
8131,RB,1,38,b,d,a,0,0.602
8131,RB,1,39,b,j,b,1,0.7829999999999999
8131,RB,1,40,a,d,a,1,0.7190000000000001
8131,RB,1,41,a,j,b,0,1.3980000000000001
8131,RB,1,42,b,d,a,0,0.725
8131,RB,1,43,a,j,b,0,0.956
8131,RB,1,44,b,d,a,0,0.603
8131,RB,1,45,b,d,a,0,1.4169999999999998
8131,RB,1,46,a,d,a,1,0.917
8131,RB,1,47,b,j,b,1,0.502
8131,RB,1,48,a,d,a,1,0.72
8131,RB,1,49,a,j,b,0,0.871
8131,RB,1,50,b,d,a,0,0.73
8131,RB,1,51,a,d,a,1,0.594
8131,RB,1,52,b,j,b,1,4.168
8131,RB,1,53,a,d,a,1,1.5090000000000001
8131,RB,1,54,b,j,b,1,1.238
8131,RB,1,55,a,j,b,0,0.722
8131,RB,1,56,b,j,b,1,0.539
8131,RB,1,57,b,j,b,1,0.674
8131,RB,1,58,a,d,a,1,0.86
8131,RB,1,59,b,j,b,1,0.703
8131,RB,1,60,a,d,a,1,0.647
8131,RB,1,61,a,d,a,1,2.092
8131,RB,1,62,a,d,a,1,0.78
8131,RB,1,63,a,d,a,1,0.8340000000000001
8131,RB,1,64,b,j,b,1,0.535
8131,RB,1,65,a,j,b,0,0.951
8131,RB,1,66,b,j,b,1,0.758
8131,RB,1,67,a,d,a,1,0.446
8131,RB,1,68,a,d,a,1,1.431
8131,RB,1,69,b,j,b,1,0.596
8131,RB,1,70,b,j,b,1,1.248
8131,RB,1,71,a,d,a,1,0.9570000000000001
8131,RB,1,72,b,j,b,1,0.9470000000000001
8131,RB,1,73,a,d,a,1,0.6579999999999999
8131,RB,1,74,b,j,b,1,0.6459999999999999
8131,RB,1,75,a,d,a,1,0.505
8131,RB,1,76,a,d,a,1,0.802
8131,RB,1,77,b,j,b,1,0.64
8131,RB,1,78,a,d,a,1,0.602
8131,RB,1,79,a,d,a,1,1.088
8131,RB,1,80,a,d,a,1,0.802
8036,II,2,1,b,d,a,0,2.853
8036,II,2,2,b,d,a,0,1.064
8036,II,2,3,a,j,b,0,0.963
8036,II,2,4,a,d,a,1,0.961
8036,II,2,5,b,j,b,1,0.7190000000000001
8036,II,2,6,a,d,a,1,0.8640000000000001
8036,II,2,7,b,j,b,1,1.339
8036,II,2,8,a,d,a,1,0.867
8036,II,2,9,b,j,b,1,0.733
8036,II,2,10,a,d,a,1,0.708
8036,II,2,11,a,d,a,1,0.9009999999999999
8036,II,2,12,b,j,b,1,0.863
8036,II,2,13,b,j,b,1,0.8340000000000001
8036,II,2,14,b,j,b,1,0.836
8036,II,2,15,b,d,a,0,1.2409999999999999
8036,II,2,16,a,d,a,1,1.6269999999999998
8036,II,2,17,b,j,b,1,0.7290000000000001
8036,II,2,18,b,j,b,1,0.888
8036,II,2,19,a,j,b,0,0.8340000000000001
8036,II,2,20,b,j,b,1,0.726
8036,II,2,21,b,j,b,1,0.765
8036,II,2,22,b,d,a,0,0.701
8036,II,2,23,b,j,b,1,0.631
8036,II,2,24,a,d,a,1,0.986
8036,II,2,25,b,d,a,0,1.64
8036,II,2,26,b,j,b,1,0.691
8036,II,2,27,a,j,b,0,0.541
8036,II,2,28,a,d,a,1,0.773
8036,II,2,29,a,j,b,0,0.617
8036,II,2,30,a,d,a,1,1.031
8036,II,2,31,a,d,a,1,1.4669999999999999
8036,II,2,32,b,j,b,1,1.7730000000000001
8036,II,2,33,a,j,b,0,1.483
8036,II,2,34,b,j,b,1,0.78
8036,II,2,35,b,j,b,1,0.747
8036,II,2,36,a,j,b,0,0.57
8036,II,2,37,b,j,b,1,0.745
8036,II,2,38,a,d,a,1,0.8640000000000001
8036,II,2,39,a,d,a,1,0.594
8036,II,2,40,b,j,b,1,0.92
8036,II,2,41,a,d,a,1,0.889
8036,II,2,42,b,j,b,1,1.6019999999999999
8036,II,2,43,a,d,a,1,0.728
8036,II,2,44,b,d,a,0,1.15
8036,II,2,45,a,j,b,0,1.1909999999999998
8036,II,2,46,b,d,a,0,1.0590000000000002
8036,II,2,47,a,d,a,1,1.703
8036,II,2,48,b,j,b,1,0.831
8036,II,2,49,b,j,b,1,0.8109999999999999
8036,II,2,50,a,j,b,0,0.777
8036,II,2,51,b,d,a,0,1.165
8036,II,2,52,a,d,a,1,1.445
8036,II,2,53,b,j,b,1,0.687
8036,II,2,54,a,j,b,0,0.81
8036,II,2,55,a,d,a,1,0.935
8036,II,2,56,a,j,b,0,0.862
8036,II,2,57,a,d,a,1,0.48100000000000004
8036,II,2,58,b,d,a,0,0.436
8036,II,2,59,b,j,b,1,0.7979999999999999
8036,II,2,60,a,d,a,1,0.637
8036,II,2,61,a,d,a,1,0.609
8036,II,2,62,b,j,b,1,1.045
8036,II,2,63,a,j,b,0,1.177
8036,II,2,64,a,d,a,1,1.1340000000000001
8036,II,2,65,a,j,b,0,0.7829999999999999
8036,II,2,66,b,j,b,1,1.2919999999999998
8036,II,2,67,a,d,a,1,0.7020000000000001
8036,II,2,68,b,d,a,0,1.031
8036,II,2,69,a,j,b,0,1.042
8036,II,2,70,a,d,a,1,0.934
8036,II,2,71,b,d,a,0,1.358
8036,II,2,72,b,j,b,1,0.9
8036,II,2,73,b,j,b,1,1.214
8036,II,2,74,a,d,a,1,0.769
8036,II,2,75,a,d,a,1,0.609
8036,II,2,76,b,d,a,0,0.6859999999999999
8036,II,2,77,b,d,a,0,1.735
8036,II,2,78,b,j,b,1,1.7519999999999998
8036,II,2,79,a,d,a,1,1.4780000000000002
8036,II,2,80,a,j,b,0,1.4169999999999998
8014,II,2,1,a,d,a,1,1.7519999999999998
8014,II,2,2,a,j,b,0,1.574
8014,II,2,3,b,d,a,0,0.652
8014,II,2,4,b,d,a,0,1.088
8014,II,2,5,a,j,b,0,2.785
8014,II,2,6,b,d,a,0,0.414
8014,II,2,7,a,d,a,1,0.5710000000000001
8014,II,2,8,a,j,b,0,1.538
8014,II,2,9,b,d,a,0,0.385
8014,II,2,10,a,d,a,1,0.28
8014,II,2,11,a,d,a,1,0.986
8014,II,2,12,b,d,a,0,1.328
8014,II,2,13,b,j,b,1,1.296
8014,II,2,14,a,j,b,0,0.7609999999999999
8014,II,2,15,a,j,b,0,1.079
8014,II,2,16,b,d,a,0,0.8740000000000001
8014,II,2,17,a,d,a,1,0.491
8014,II,2,18,a,j,b,0,1.781
8014,II,2,19,a,j,b,0,1.426
8014,II,2,20,a,j,b,0,0.535
8014,II,2,21,b,d,a,0,0.48700000000000004
8014,II,2,22,b,d,a,0,0.5529999999999999
8014,II,2,23,b,d,a,0,1.12
8014,II,2,24,b,j,b,1,0.8959999999999999
8014,II,2,25,a,d,a,1,1.17
8014,II,2,26,a,d,a,1,0.6729999999999999
8014,II,2,27,a,d,a,1,0.778
8014,II,2,28,a,d,a,1,0.833
8014,II,2,29,b,j,b,1,1.189
8014,II,2,30,a,d,a,1,1.379
8014,II,2,31,a,j,b,0,0.992
8014,II,2,32,a,j,b,0,1.253
8014,II,2,33,b,j,b,1,1.425
8014,II,2,34,b,d,a,0,0.812
8014,II,2,35,a,d,a,1,0.665
8014,II,2,36,a,d,a,1,0.8440000000000001
8014,II,2,37,b,j,b,1,0.887
8014,II,2,38,a,j,b,0,1.113
8014,II,2,39,a,j,b,0,0.721
8014,II,2,40,b,j,b,1,1.058
8014,II,2,41,b,d,a,0,1.2690000000000001
8014,II,2,42,b,j,b,1,1.023
8014,II,2,43,b,d,a,0,1.275
8014,II,2,44,b,j,b,1,0.797
8014,II,2,45,b,j,b,1,1.403
8014,II,2,46,b,d,a,0,0.982
8014,II,2,47,a,j,b,0,0.622
8014,II,2,48,a,d,a,1,1.202
8014,II,2,49,b,j,b,1,1.7990000000000002
8014,II,2,50,a,d,a,1,1.036
8014,II,2,51,a,d,a,1,0.943
8014,II,2,52,b,j,b,1,1.311
8014,II,2,53,b,d,a,0,1.374
8014,II,2,54,b,d,a,0,0.958
8014,II,2,55,b,d,a,0,0.98
8014,II,2,56,a,d,a,1,0.961
8014,II,2,57,b,j,b,1,0.873
8014,II,2,58,b,j,b,1,0.938
8014,II,2,59,b,j,b,1,1.003
8014,II,2,60,a,j,b,0,1.087
8014,II,2,61,b,j,b,1,2.721
8014,II,2,62,a,j,b,0,1.033
8014,II,2,63,a,d,a,1,0.5329999999999999
8014,II,2,64,b,d,a,0,0.66
8014,II,2,65,a,j,b,0,0.424
8014,II,2,66,a,d,a,1,0.325
8014,II,2,67,b,d,a,0,0.637
8014,II,2,68,b,j,b,1,1.0490000000000002
8014,II,2,69,a,d,a,1,1.268
8014,II,2,70,a,d,a,1,0.589
8014,II,2,71,b,d,a,0,0.597
8014,II,2,72,a,j,b,0,0.57
8014,II,2,73,a,d,a,1,0.631
8014,II,2,74,a,d,a,1,1.204
8014,II,2,75,b,j,b,1,1.146
8014,II,2,76,b,j,b,1,0.873
8014,II,2,77,a,d,a,1,0.8109999999999999
8014,II,2,78,b,j,b,1,1.591
8014,II,2,79,b,j,b,1,0.941
8014,II,2,80,b,d,a,0,1.643
8081,II,3,1,a,j,b,0,1.1159999999999999
8081,II,3,2,a,j,b,0,0.7959999999999999
8081,II,3,3,b,d,a,0,0.57
8081,II,3,4,b,d,a,0,0.5429999999999999
8081,II,3,5,a,j,b,0,0.574
8081,II,3,6,b,d,a,0,1.486
8081,II,3,7,a,j,b,0,0.43
8081,II,3,8,b,d,a,0,1.235
8081,II,3,9,a,d,a,1,0.5760000000000001
8081,II,3,10,a,d,a,1,0.556
8081,II,3,11,a,d,a,1,0.428
8081,II,3,12,a,j,b,0,0.856
8081,II,3,13,a,d,a,1,0.7390000000000001
8081,II,3,14,b,j,b,1,0.643
8081,II,3,15,a,j,b,0,0.503
8081,II,3,16,b,d,a,0,0.7040000000000001
8081,II,3,17,a,j,b,0,0.39299999999999996
8081,II,3,18,a,j,b,0,0.648
8081,II,3,19,b,d,a,0,0.466
8081,II,3,20,a,d,a,1,0.653
8081,II,3,21,a,j,b,0,0.777
8081,II,3,22,b,d,a,0,0.389
8081,II,3,23,b,j,b,1,0.38799999999999996
8081,II,3,24,b,j,b,1,0.331
8081,II,3,25,a,j,b,0,0.401
8081,II,3,26,b,d,a,0,0.32799999999999996
8081,II,3,27,a,d,a,1,0.583
8081,II,3,28,a,j,b,0,0.757
8081,II,3,29,a,d,a,1,0.3
8081,II,3,30,a,d,a,1,0.606
8081,II,3,31,a,d,a,1,0.41100000000000003
8081,II,3,32,a,d,a,1,0.303
8081,II,3,33,b,d,a,0,0.297
8081,II,3,34,a,j,b,0,0.315
8081,II,3,35,a,j,b,0,0.8190000000000001
8081,II,3,36,b,d,a,0,0.368
8081,II,3,37,a,j,b,0,0.326
8081,II,3,38,b,d,a,0,0.39799999999999996
8081,II,3,39,a,j,b,0,0.557
8081,II,3,40,b,d,a,0,0.8029999999999999
8081,II,3,41,b,j,b,1,1.287
8081,II,3,42,a,d,a,1,0.539
8081,II,3,43,b,j,b,1,0.7070000000000001
8081,II,3,44,b,j,b,1,0.642
8081,II,3,45,b,j,b,1,0.43799999999999994
8081,II,3,46,b,j,b,1,0.627
8081,II,3,47,a,d,a,1,0.95
8081,II,3,48,a,d,a,1,0.573
8081,II,3,49,b,j,b,1,0.8690000000000001
8081,II,3,50,b,d,a,0,0.638
8081,II,3,51,b,d,a,0,0.579
8081,II,3,52,a,j,b,0,0.473
8081,II,3,53,b,d,a,0,0.33799999999999997
8081,II,3,54,a,j,b,0,0.474
8081,II,3,55,b,j,b,1,0.573
8081,II,3,56,a,d,a,1,0.498
8081,II,3,57,b,d,a,0,1.5730000000000002
8081,II,3,58,b,j,b,1,0.547
8081,II,3,59,b,j,b,1,0.682
8081,II,3,60,a,j,b,0,0.469
8081,II,3,61,a,d,a,1,0.5920000000000001
8081,II,3,62,a,d,a,1,0.429
8081,II,3,63,b,d,a,0,0.353
8081,II,3,64,b,j,b,1,0.313
8081,II,3,65,b,j,b,1,0.48
8081,II,3,66,a,j,b,0,0.7879999999999999
8081,II,3,67,b,d,a,0,0.425
8081,II,3,68,a,j,b,0,0.27699999999999997
8081,II,3,69,b,d,a,0,0.319
8081,II,3,70,b,j,b,1,0.544
8081,II,3,71,b,j,b,1,0.608
8081,II,3,72,b,j,b,1,0.5720000000000001
8081,II,3,73,b,j,b,1,0.34
8081,II,3,74,a,j,b,0,0.42700000000000005
8081,II,3,75,b,j,b,1,0.8059999999999999
8081,II,3,76,b,d,a,0,0.9159999999999999
8081,II,3,77,a,j,b,0,0.413
8081,II,3,78,a,d,a,1,0.336
8081,II,3,79,b,d,a,0,0.441
8081,II,3,80,a,j,b,0,0.741
8103,II,2,1,b,d,a,0,0.856
8103,II,2,2,b,j,b,1,0.8170000000000001
8103,II,2,3,b,d,a,0,0.502
8103,II,2,4,b,d,a,0,0.536
8103,II,2,5,b,d,a,0,0.41600000000000004
8103,II,2,6,b,j,b,1,0.31
8103,II,2,7,b,j,b,1,0.303
8103,II,2,8,b,d,a,0,0.29600000000000004
8103,II,2,9,a,j,b,0,0.305
8103,II,2,10,b,d,a,0,0.298
8103,II,2,11,b,d,a,0,0.22899999999999998
8103,II,2,12,a,d,a,1,0.721
8103,II,2,13,b,j,b,1,0.489
8103,II,2,14,a,d,a,1,0.44299999999999995
8103,II,2,15,a,d,a,1,0.583
8103,II,2,16,a,d,a,1,0.5710000000000001
8103,II,2,17,b,d,a,0,0.539
8103,II,2,18,b,j,b,1,0.387
8103,II,2,19,a,j,b,0,0.48
8103,II,2,20,b,d,a,0,0.363
8103,II,2,21,b,d,a,0,1.018
8103,II,2,22,a,j,b,0,0.325
8103,II,2,23,a,d,a,1,0.261
8103,II,2,24,a,d,a,1,0.602
8103,II,2,25,a,j,b,0,0.294
8103,II,2,26,a,d,a,1,0.152
8103,II,2,27,b,d,a,0,0.23199999999999998
8103,II,2,28,b,j,b,1,0.261
8103,II,2,29,b,j,b,1,0.28600000000000003
8103,II,2,30,a,j,b,0,0.273
8103,II,2,31,a,d,a,1,0.332
8103,II,2,32,a,j,b,0,0.284
8103,II,2,33,a,d,a,1,0.22899999999999998
8103,II,2,34,b,d,a,0,0.266
8103,II,2,35,b,d,a,0,0.253
8103,II,2,36,b,j,b,1,0.305
8103,II,2,37,a,j,b,0,0.306
8103,II,2,38,a,d,a,1,0.0
8103,II,2,39,b,d,a,0,0.298
8103,II,2,40,b,j,b,1,0.259
8103,II,2,41,b,d,a,0,0.285
8103,II,2,42,a,j,b,0,0.21600000000000003
8103,II,2,43,b,d,a,0,0.0
8103,II,2,44,b,d,a,0,0.0
8103,II,2,45,b,j,b,1,0.0
8103,II,2,46,a,j,b,0,0.669
8103,II,2,47,a,j,b,0,0.256
8103,II,2,48,a,j,b,0,0.027999999999999997
8103,II,2,49,b,d,a,0,0.002
8103,II,2,50,a,d,a,1,0.86
8103,II,2,51,a,d,a,1,0.36700000000000005
8103,II,2,52,a,d,a,1,0.302
8103,II,2,53,a,j,b,0,0.327
8103,II,2,54,b,d,a,0,0.344
8103,II,2,55,b,j,b,1,0.289
8103,II,2,56,a,j,b,0,0.282
8103,II,2,57,a,j,b,0,0.317
8103,II,2,58,a,j,b,0,0.309
8103,II,2,59,b,d,a,0,0.0
8103,II,2,60,a,j,b,0,0.0
8103,II,2,61,b,j,b,1,0.9059999999999999
8103,II,2,62,a,j,b,0,0.29100000000000004
8103,II,2,63,b,d,a,0,0.268
8103,II,2,64,b,d,a,0,0.223
8103,II,2,65,a,d,a,1,0.11599999999999999
8103,II,2,66,a,j,b,0,0.26899999999999996
8103,II,2,67,a,d,a,1,0.047
8103,II,2,68,b,j,b,1,0.33799999999999997
8103,II,2,69,b,d,a,0,0.235
8103,II,2,70,a,d,a,1,1.008
8103,II,2,71,b,d,a,0,0.619
8103,II,2,72,a,d,a,1,0.433
8103,II,2,73,a,j,b,0,0.462
8103,II,2,74,a,d,a,1,0.263
8103,II,2,75,b,d,a,0,0.386
8103,II,2,76,b,j,b,1,0.265
8103,II,2,77,a,j,b,0,0.28300000000000003
8103,II,2,78,b,d,a,0,0.389
8103,II,2,79,a,d,a,1,0.307
8103,II,2,80,a,j,b,0,0.324
8094,RB,2,1,a,j,b,0,2.748
8094,RB,2,2,a,d,a,1,0.58
8094,RB,2,3,b,j,b,1,0.698
8094,RB,2,4,b,j,b,1,0.762
8094,RB,2,5,a,d,a,1,0.466
8094,RB,2,6,a,d,a,1,0.46799999999999997
8094,RB,2,7,b,j,b,1,0.992
8094,RB,2,8,a,d,a,1,1.78
8094,RB,2,9,b,j,b,1,0.611
8094,RB,2,10,b,j,b,1,1.062
8094,RB,2,11,b,j,b,1,0.633
8094,RB,2,12,a,d,a,1,0.428
8094,RB,2,13,a,d,a,1,0.586
8094,RB,2,14,b,j,b,1,0.415
8094,RB,2,15,a,d,a,1,1.133
8094,RB,2,16,a,d,a,1,0.62
8094,RB,2,17,b,j,b,1,0.601
8094,RB,2,18,a,d,a,1,0.621
8094,RB,2,19,a,d,a,1,0.483
8094,RB,2,20,a,d,a,1,0.45299999999999996
8094,RB,2,21,b,j,b,1,0.4
8094,RB,2,22,a,d,a,1,0.637
8094,RB,2,23,b,j,b,1,0.522
8094,RB,2,24,b,j,b,1,0.499
8094,RB,2,25,b,j,b,1,0.508
8094,RB,2,26,b,j,b,1,0.501
8094,RB,2,27,b,j,b,1,0.47100000000000003
8094,RB,2,28,b,j,b,1,0.408
8094,RB,2,29,b,j,b,1,0.502
8094,RB,2,30,a,d,a,1,0.7190000000000001
8094,RB,2,31,a,d,a,1,0.575
8094,RB,2,32,a,d,a,1,0.445
8094,RB,2,33,a,d,a,1,0.433
8094,RB,2,34,a,d,a,1,0.54
8094,RB,2,35,b,j,b,1,0.532
8094,RB,2,36,b,j,b,1,0.684
8094,RB,2,37,b,j,b,1,0.45399999999999996
8094,RB,2,38,b,j,b,1,0.45
8094,RB,2,39,a,d,a,1,0.534
8094,RB,2,40,b,j,b,1,0.591
8094,RB,2,41,b,j,b,1,0.555
8094,RB,2,42,a,d,a,1,0.466
8094,RB,2,43,a,d,a,1,0.638
8094,RB,2,44,b,j,b,1,0.457
8094,RB,2,45,a,d,a,1,0.557
8094,RB,2,46,b,j,b,1,0.555
8094,RB,2,47,a,d,a,1,1.6580000000000001
8094,RB,2,48,b,j,b,1,0.501
8094,RB,2,49,b,j,b,1,0.502
8094,RB,2,50,b,j,b,1,0.512
8094,RB,2,51,a,d,a,1,0.8240000000000001
8094,RB,2,52,a,d,a,1,0.556
8094,RB,2,53,b,j,b,1,0.41100000000000003
8094,RB,2,54,b,j,b,1,0.384
8094,RB,2,55,b,j,b,1,0.599
8094,RB,2,56,a,d,a,1,0.515
8094,RB,2,57,a,d,a,1,0.556
8094,RB,2,58,a,d,a,1,0.45899999999999996
8094,RB,2,59,b,j,b,1,0.45299999999999996
8094,RB,2,60,a,d,a,1,0.5770000000000001
8094,RB,2,61,a,d,a,1,0.623
8094,RB,2,62,a,d,a,1,0.41
8094,RB,2,63,b,j,b,1,0.441
8094,RB,2,64,b,j,b,1,0.38
8094,RB,2,65,b,j,b,1,0.402
8094,RB,2,66,b,j,b,1,0.384
8094,RB,2,67,a,d,a,1,0.59
8094,RB,2,68,b,j,b,1,0.6759999999999999
8094,RB,2,69,b,j,b,1,1.014
8094,RB,2,70,a,d,a,1,0.475
8094,RB,2,71,a,d,a,1,0.564
8094,RB,2,72,a,d,a,1,0.547
8094,RB,2,73,a,d,a,1,0.41
8094,RB,2,74,a,d,a,1,0.897
8094,RB,2,75,a,d,a,1,0.44
8094,RB,2,76,a,d,a,1,0.397
8094,RB,2,77,a,d,a,1,0.419
8094,RB,2,78,b,j,b,1,0.45399999999999996
8094,RB,2,79,b,j,b,1,0.42700000000000005
8094,RB,2,80,b,j,b,1,0.446
8112,RB,3,1,a,d,a,1,0.948
8112,RB,3,2,b,j,b,1,0.54
8112,RB,3,3,b,j,b,1,0.7709999999999999
8112,RB,3,4,b,j,b,1,0.634
8112,RB,3,5,a,d,a,1,0.47100000000000003
8112,RB,3,6,b,j,b,1,0.624
8112,RB,3,7,b,j,b,1,0.5489999999999999
8112,RB,3,8,b,j,b,1,0.469
8112,RB,3,9,b,j,b,1,0.518
8112,RB,3,10,a,d,a,1,0.496
8112,RB,3,11,a,d,a,1,0.89
8112,RB,3,12,b,j,b,1,0.555
8112,RB,3,13,a,d,a,1,0.435
8112,RB,3,14,a,j,b,0,0.591
8112,RB,3,15,b,j,b,1,0.44299999999999995
8112,RB,3,16,a,d,a,1,0.5429999999999999
8112,RB,3,17,b,j,b,1,0.488
8112,RB,3,18,a,d,a,1,0.7609999999999999
8112,RB,3,19,b,j,b,1,0.415
8112,RB,3,20,b,j,b,1,1.5730000000000002
8112,RB,3,21,b,j,b,1,0.579
8112,RB,3,22,a,d,a,1,0.521
8112,RB,3,23,a,d,a,1,1.082
8112,RB,3,24,a,d,a,1,1.14
8112,RB,3,25,a,d,a,1,1.395
8112,RB,3,26,a,d,a,1,0.623
8112,RB,3,27,a,d,a,1,0.596
8112,RB,3,28,a,d,a,1,0.6579999999999999
8112,RB,3,29,a,j,b,0,0.7559999999999999
8112,RB,3,30,b,j,b,1,0.475
8112,RB,3,31,b,j,b,1,0.35
8112,RB,3,32,b,j,b,1,0.564
8112,RB,3,33,a,d,a,1,1.028
8112,RB,3,34,a,d,a,1,0.8
8112,RB,3,35,a,d,a,1,0.588
8112,RB,3,36,b,j,b,1,0.531
8112,RB,3,37,b,j,b,1,0.564
8112,RB,3,38,a,j,b,0,0.433
8112,RB,3,39,b,j,b,1,0.581
8112,RB,3,40,b,j,b,1,0.5479999999999999
8112,RB,3,41,b,j,b,1,0.642
8112,RB,3,42,b,j,b,1,2.1830000000000003
8112,RB,3,43,a,d,a,1,0.475
8112,RB,3,44,a,d,a,1,0.6859999999999999
8112,RB,3,45,a,d,a,1,0.721
8112,RB,3,46,a,d,a,1,0.6559999999999999
8112,RB,3,47,b,j,b,1,0.708
8112,RB,3,48,a,j,b,0,0.38799999999999996
8112,RB,3,49,b,j,b,1,0.531
8112,RB,3,50,b,j,b,1,0.682
8112,RB,3,51,a,d,a,1,0.613
8112,RB,3,52,b,j,b,1,0.544
8112,RB,3,53,b,d,a,0,0.912
8112,RB,3,54,a,d,a,1,0.418
8112,RB,3,55,b,j,b,1,0.51
8112,RB,3,56,b,j,b,1,0.591
8112,RB,3,57,a,d,a,1,0.6759999999999999
8112,RB,3,58,a,d,a,1,0.902
8112,RB,3,59,a,d,a,1,0.728
8112,RB,3,60,a,d,a,1,1.44
8112,RB,3,61,b,j,b,1,0.42
8112,RB,3,62,b,j,b,1,0.433
8112,RB,3,63,a,d,a,1,0.45899999999999996
8112,RB,3,64,b,j,b,1,0.447
8112,RB,3,65,a,d,a,1,0.706
8112,RB,3,66,b,j,b,1,0.5379999999999999
8112,RB,3,67,a,d,a,1,0.836
8112,RB,3,68,b,j,b,1,0.512
8112,RB,3,69,b,j,b,1,0.695
8112,RB,3,70,a,d,a,1,0.865
8112,RB,3,71,a,d,a,1,0.573
8112,RB,3,72,b,j,b,1,0.642
8112,RB,3,73,a,j,b,0,0.397
8112,RB,3,74,a,j,b,0,0.435
8112,RB,3,75,b,j,b,1,0.496
8112,RB,3,76,b,j,b,1,0.753
8112,RB,3,77,b,j,b,1,1.008
8112,RB,3,78,a,d,a,1,0.46
8112,RB,3,79,b,j,b,1,0.7440000000000001
8112,RB,3,80,a,d,a,1,0.52
8147,II,3,1,b,d,a,0,2.057
8147,II,3,2,b,d,a,0,1.123
8147,II,3,3,b,j,b,1,0.45899999999999996
8147,II,3,4,a,d,a,1,0.726
8147,II,3,5,a,d,a,1,0.662
8147,II,3,6,b,j,b,1,0.888
8147,II,3,7,a,j,b,0,3.4989999999999997
8147,II,3,8,a,d,a,1,0.547
8147,II,3,9,b,j,b,1,0.97
8147,II,3,10,a,j,b,0,1.216
8147,II,3,11,b,d,a,0,0.8140000000000001
8147,II,3,12,b,j,b,1,1.771
8147,II,3,13,a,j,b,0,2.497
8147,II,3,14,b,d,a,0,0.7929999999999999
8147,II,3,15,b,j,b,1,0.623
8147,II,3,16,a,j,b,0,0.8109999999999999
8147,II,3,17,a,j,b,0,0.439
8147,II,3,18,b,d,a,0,1.954
8147,II,3,19,a,j,b,0,0.433
8147,II,3,20,a,d,a,1,0.33399999999999996
8147,II,3,21,b,j,b,1,0.982
8147,II,3,22,a,d,a,1,1.651
8147,II,3,23,b,j,b,1,2.7030000000000003
8147,II,3,24,b,j,b,1,1.5759999999999998
8147,II,3,25,a,d,a,1,1.15
8147,II,3,26,a,d,a,1,0.9329999999999999
8147,II,3,27,a,d,a,1,1.125
8147,II,3,28,a,j,b,0,1.156
8147,II,3,29,b,d,a,0,1.155
8147,II,3,30,b,j,b,1,0.65
8147,II,3,31,a,j,b,0,0.934
8147,II,3,32,a,d,a,1,0.9740000000000001
8147,II,3,33,b,j,b,1,1.4340000000000002
8147,II,3,34,b,j,b,1,1.367
8147,II,3,35,a,d,a,1,0.997
8147,II,3,36,b,j,b,1,2.459
8147,II,3,37,b,j,b,1,1.181
8147,II,3,38,b,j,b,1,1.0270000000000001
8147,II,3,39,a,d,a,1,0.862
8147,II,3,40,a,d,a,1,1.7369999999999999
8147,II,3,41,a,j,b,0,3.3369999999999997
8147,II,3,42,a,d,a,1,0.991
8147,II,3,43,b,j,b,1,2.045
8147,II,3,44,a,d,a,1,1.472
8147,II,3,45,a,j,b,0,1.546
8147,II,3,46,a,d,a,1,0.7859999999999999
8147,II,3,47,b,j,b,1,1.0959999999999999
8147,II,3,48,a,d,a,1,2.17
8147,II,3,49,a,j,b,0,3.904
8147,II,3,50,b,d,a,0,0.552
8147,II,3,51,b,j,b,1,1.7590000000000001
8147,II,3,52,b,d,a,0,2.43
8147,II,3,53,a,j,b,0,0.752
8147,II,3,54,a,d,a,1,1.1840000000000002
8147,II,3,55,b,j,b,1,3.175
8147,II,3,56,b,d,a,0,2.699
8147,II,3,57,b,j,b,1,1.084
8147,II,3,58,b,j,b,1,1.0070000000000001
8147,II,3,59,b,j,b,1,3.083
8147,II,3,60,a,d,a,1,1.0190000000000001
8147,II,3,61,b,d,a,0,0.977
8147,II,3,62,b,j,b,1,0.872
8147,II,3,63,b,j,b,1,1.065
8147,II,3,64,b,d,a,0,0.813
8147,II,3,65,a,j,b,0,0.664
8147,II,3,66,a,d,a,1,0.932
8147,II,3,67,b,d,a,0,1.268
8147,II,3,68,b,j,b,1,0.7090000000000001
8147,II,3,69,a,j,b,0,1.6469999999999998
8147,II,3,70,b,d,a,0,3.273
8147,II,3,71,a,j,b,0,0.738
8147,II,3,72,a,j,b,0,0.57
8147,II,3,73,a,j,b,0,0.45
8147,II,3,74,a,j,b,0,0.58
8147,II,3,75,a,j,b,0,0.395
8147,II,3,76,b,j,b,1,0.768
8147,II,3,77,a,j,b,0,0.43799999999999994
8147,II,3,78,b,d,a,0,0.5710000000000001
8147,II,3,79,b,d,a,0,0.698
8147,II,3,80,a,j,b,0,1.091
8020,RB,2,1,b,j,b,1,2.275
8020,RB,2,2,a,d,a,1,0.611
8020,RB,2,3,a,d,a,1,0.47200000000000003
8020,RB,2,4,a,d,a,1,0.507
8020,RB,2,5,a,d,a,1,0.828
8020,RB,2,6,b,j,b,1,0.648
8020,RB,2,7,b,j,b,1,0.451
8020,RB,2,8,a,d,a,1,0.583
8020,RB,2,9,b,j,b,1,0.5870000000000001
8020,RB,2,10,b,j,b,1,0.5379999999999999
8020,RB,2,11,a,d,a,1,0.5539999999999999
8020,RB,2,12,b,d,a,0,0.449
8020,RB,2,13,a,j,b,0,0.741
8020,RB,2,14,b,j,b,1,0.773
8020,RB,2,15,a,d,a,1,0.5710000000000001
8020,RB,2,16,b,j,b,1,0.594
8020,RB,2,17,b,j,b,1,0.639
8020,RB,2,18,b,j,b,1,0.898
8020,RB,2,19,a,d,a,1,0.49200000000000005
8020,RB,2,20,b,d,a,0,0.43
8020,RB,2,21,b,j,b,1,1.8
8020,RB,2,22,b,j,b,1,0.622
8020,RB,2,23,a,d,a,1,0.618
8020,RB,2,24,b,j,b,1,0.535
8020,RB,2,25,a,d,a,1,0.815
8020,RB,2,26,b,j,b,1,0.515
8020,RB,2,27,b,j,b,1,0.444
8020,RB,2,28,b,j,b,1,0.44
8020,RB,2,29,b,j,b,1,0.44299999999999995
8020,RB,2,30,b,j,b,1,0.382
8020,RB,2,31,b,j,b,1,0.46
8020,RB,2,32,b,j,b,1,0.439
8020,RB,2,33,a,j,b,0,0.40299999999999997
8020,RB,2,34,a,d,a,1,0.545
8020,RB,2,35,a,d,a,1,0.456
8020,RB,2,36,b,j,b,1,0.706
8020,RB,2,37,b,d,a,0,0.604
8020,RB,2,38,b,j,b,1,0.473
8020,RB,2,39,b,j,b,1,0.418
8020,RB,2,40,b,j,b,1,0.7759999999999999
8020,RB,2,41,a,d,a,1,0.6779999999999999
8020,RB,2,42,a,j,b,0,0.5429999999999999
8020,RB,2,43,b,j,b,1,0.5670000000000001
8020,RB,2,44,a,d,a,1,0.8220000000000001
8020,RB,2,45,a,d,a,1,0.762
8020,RB,2,46,a,d,a,1,0.498
8020,RB,2,47,a,d,a,1,0.515
8020,RB,2,48,b,j,b,1,0.636
8020,RB,2,49,b,d,a,0,0.384
8020,RB,2,50,b,j,b,1,0.446
8020,RB,2,51,a,j,b,0,0.41600000000000004
8020,RB,2,52,b,j,b,1,0.614
8020,RB,2,53,b,j,b,1,0.507
8020,RB,2,54,a,d,a,1,0.563
8020,RB,2,55,a,d,a,1,0.515
8020,RB,2,56,a,d,a,1,0.467
8020,RB,2,57,a,d,a,1,0.39
8020,RB,2,58,a,d,a,1,0.42700000000000005
8020,RB,2,59,a,j,b,0,0.392
8020,RB,2,60,a,d,a,1,0.373
8020,RB,2,61,a,d,a,1,0.507
8020,RB,2,62,a,j,b,0,0.461
8020,RB,2,63,b,j,b,1,0.8240000000000001
8020,RB,2,64,a,j,b,0,0.435
8020,RB,2,65,b,j,b,1,0.872
8020,RB,2,66,a,d,a,1,0.602
8020,RB,2,67,a,d,a,1,1.0859999999999999
8020,RB,2,68,b,j,b,1,0.474
8020,RB,2,69,a,d,a,1,0.5720000000000001
8020,RB,2,70,b,j,b,1,0.6890000000000001
8020,RB,2,71,a,d,a,1,0.748
8020,RB,2,72,a,d,a,1,0.8590000000000001
8020,RB,2,73,a,j,b,0,0.7340000000000001
8020,RB,2,74,a,j,b,0,0.821
8020,RB,2,75,b,j,b,1,0.84
8020,RB,2,76,a,j,b,0,0.573
8020,RB,2,77,a,j,b,0,0.915
8020,RB,2,78,b,j,b,1,0.6990000000000001
8020,RB,2,79,b,d,a,0,2.8369999999999997
8020,RB,2,80,b,j,b,1,2.167
8033,II,3,1,b,d,a,0,2.339
8033,II,3,2,a,j,b,0,0.978
8033,II,3,3,a,j,b,0,0.465
8033,II,3,4,b,d,a,0,0.29
8033,II,3,5,b,d,a,0,0.7240000000000001
8033,II,3,6,a,d,a,1,1.4680000000000002
8033,II,3,7,a,d,a,1,0.7340000000000001
8033,II,3,8,a,d,a,1,0.607
8033,II,3,9,b,j,b,1,0.66
8033,II,3,10,b,j,b,1,0.502
8033,II,3,11,a,d,a,1,2.032
8033,II,3,12,a,d,a,1,0.6509999999999999
8033,II,3,13,a,d,a,1,0.598
8033,II,3,14,a,j,b,0,0.684
8033,II,3,15,a,d,a,1,0.366
8033,II,3,16,b,j,b,1,0.948
8033,II,3,17,a,j,b,0,0.6920000000000001
8033,II,3,18,a,d,a,1,0.381
8033,II,3,19,b,j,b,1,0.972
8033,II,3,20,a,d,a,1,0.904
8033,II,3,21,a,d,a,1,0.6890000000000001
8033,II,3,22,a,d,a,1,1.8430000000000002
8033,II,3,23,a,d,a,1,0.647
8033,II,3,24,b,j,b,1,0.6659999999999999
8033,II,3,25,a,d,a,1,0.763
8033,II,3,26,a,d,a,1,0.6659999999999999
8033,II,3,27,a,d,a,1,0.846
8033,II,3,28,a,d,a,1,1.3840000000000001
8033,II,3,29,b,d,a,0,1.207
8033,II,3,30,b,j,b,1,0.33899999999999997
8033,II,3,31,a,d,a,1,1.355
8033,II,3,32,b,j,b,1,0.643
8033,II,3,33,a,d,a,1,0.5489999999999999
8033,II,3,34,b,j,b,1,0.653
8033,II,3,35,b,d,a,0,0.7759999999999999
8033,II,3,36,a,j,b,0,0.237
8033,II,3,37,a,j,b,0,0.39399999999999996
8033,II,3,38,b,d,a,0,0.264
8033,II,3,39,b,d,a,0,1.818
8033,II,3,40,b,d,a,0,1.023
8033,II,3,41,a,j,b,0,1.02
8033,II,3,42,b,d,a,0,0.6709999999999999
8033,II,3,43,b,d,a,0,0.866
8033,II,3,44,b,j,b,1,0.6990000000000001
8033,II,3,45,b,d,a,0,1.334
8033,II,3,46,b,j,b,1,0.774
8033,II,3,47,a,d,a,1,0.675
8033,II,3,48,a,d,a,1,0.43799999999999994
8033,II,3,49,a,d,a,1,0.586
8033,II,3,50,b,j,b,1,0.5660000000000001
8033,II,3,51,b,j,b,1,0.51
8033,II,3,52,b,j,b,1,0.56
8033,II,3,53,b,j,b,1,0.574
8033,II,3,54,b,j,b,1,0.732
8033,II,3,55,a,d,a,1,0.565
8033,II,3,56,b,j,b,1,0.65
8033,II,3,57,a,j,b,0,1.318
8033,II,3,58,b,j,b,1,0.5660000000000001
8033,II,3,59,b,j,b,1,0.565
8033,II,3,60,b,d,a,0,0.7240000000000001
8033,II,3,61,a,j,b,0,0.843
8033,II,3,62,b,j,b,1,0.496
8033,II,3,63,a,j,b,0,0.561
8033,II,3,64,b,j,b,1,0.83
8033,II,3,65,a,d,a,1,0.515
8033,II,3,66,b,j,b,1,1.021
8033,II,3,67,a,j,b,0,0.7440000000000001
8033,II,3,68,a,d,a,1,0.665
8033,II,3,69,a,d,a,1,0.9540000000000001
8033,II,3,70,a,d,a,1,0.642
8033,II,3,71,b,j,b,1,1.0859999999999999
8033,II,3,72,a,d,a,1,0.5429999999999999
8033,II,3,73,a,j,b,0,0.8220000000000001
8033,II,3,74,b,j,b,1,0.795
8033,II,3,75,b,j,b,1,0.767
8033,II,3,76,b,j,b,1,0.9109999999999999
8033,II,3,77,a,d,a,1,1.239
8033,II,3,78,b,j,b,1,0.579
8033,II,3,79,b,d,a,0,0.768
8033,II,3,80,b,j,b,1,0.879
8110,II,3,1,b,d,a,0,2.0069999999999997
8110,II,3,2,a,j,b,0,2.682
8110,II,3,3,a,j,b,0,1.5090000000000001
8110,II,3,4,b,d,a,0,1.1320000000000001
8110,II,3,5,a,j,b,0,1.7890000000000001
8110,II,3,6,b,d,a,0,1.483
8110,II,3,7,a,j,b,0,2.029
8110,II,3,8,b,j,b,1,1.8
8110,II,3,9,a,j,b,0,2.499
8110,II,3,10,a,j,b,0,3.085
8110,II,3,11,a,d,a,1,2.254
8110,II,3,12,a,d,a,1,2.241
8110,II,3,13,a,d,a,1,1.227
8110,II,3,14,a,j,b,0,2.088
8110,II,3,15,a,j,b,0,1.3769999999999998
8110,II,3,16,b,j,b,1,1.5119999999999998
8110,II,3,17,b,d,a,0,1.511
8110,II,3,18,b,j,b,1,2.456
8110,II,3,19,b,d,a,0,1.6019999999999999
8110,II,3,20,b,j,b,1,1.896
8110,II,3,21,a,j,b,0,1.7690000000000001
8110,II,3,22,b,j,b,1,1.608
8110,II,3,23,a,j,b,0,1.9069999999999998
8110,II,3,24,a,d,a,1,1.123
8110,II,3,25,a,d,a,1,1.659
8110,II,3,26,b,d,a,0,1.4369999999999998
8110,II,3,27,b,j,b,1,1.626
8110,II,3,28,a,j,b,0,2.2680000000000002
8110,II,3,29,b,d,a,0,1.8
8110,II,3,30,b,d,a,0,1.7080000000000002
8110,II,3,31,b,j,b,1,1.661
8110,II,3,32,a,j,b,0,2.2159999999999997
8110,II,3,33,a,j,b,0,1.53
8110,II,3,34,a,d,a,1,1.899
8110,II,3,35,a,d,a,1,1.995
8110,II,3,36,a,d,a,1,2.641
8110,II,3,37,a,d,a,1,1.892
8110,II,3,38,a,d,a,1,1.828
8110,II,3,39,a,d,a,1,1.68
8110,II,3,40,b,d,a,0,1.5290000000000001
8110,II,3,41,a,j,b,0,2.138
8110,II,3,42,a,j,b,0,1.5530000000000002
8110,II,3,43,b,j,b,1,2.201
8110,II,3,44,a,d,a,1,1.117
8110,II,3,45,a,j,b,0,1.501
8110,II,3,46,b,j,b,1,1.607
8110,II,3,47,b,j,b,1,2.011
8110,II,3,48,a,j,b,0,2.375
8110,II,3,49,a,d,a,1,1.54
8110,II,3,50,a,d,a,1,2.005
8110,II,3,51,a,d,a,1,1.432
8110,II,3,52,b,d,a,0,1.2990000000000002
8110,II,3,53,b,j,b,1,1.189
8110,II,3,54,b,j,b,1,1.196
8110,II,3,55,b,j,b,1,1.808
8110,II,3,56,b,j,b,1,2.005
8110,II,3,57,a,j,b,0,1.8330000000000002
8110,II,3,58,b,d,a,0,1.9240000000000002
8110,II,3,59,a,j,b,0,1.581
8110,II,3,60,b,d,a,0,1.962
8110,II,3,61,a,d,a,1,1.473
8110,II,3,62,b,d,a,0,1.3630000000000002
8110,II,3,63,b,j,b,1,1.585
8110,II,3,64,b,j,b,1,1.743
8110,II,3,65,b,j,b,1,1.5019999999999998
8110,II,3,66,b,j,b,1,1.831
8110,II,3,67,b,j,b,1,1.794
8110,II,3,68,a,j,b,0,1.392
8110,II,3,69,b,d,a,0,1.94
8110,II,3,70,a,d,a,1,2.5
8110,II,3,71,a,d,a,1,3.06
8110,II,3,72,a,d,a,1,1.597
8110,II,3,73,b,d,a,0,1.1640000000000001
8110,II,3,74,b,j,b,1,2.169
8110,II,3,75,b,j,b,1,2.408
8110,II,3,76,b,j,b,1,3.1319999999999997
8110,II,3,77,a,j,b,0,2.427
8110,II,3,78,b,d,a,0,1.094
8110,II,3,79,b,d,a,0,1.935
8110,II,3,80,b,j,b,1,1.655
8064,RB,1,1,b,j,b,1,1.43
8064,RB,1,2,b,j,b,1,0.593
8064,RB,1,3,a,j,b,0,0.456
8064,RB,1,4,b,j,b,1,0.355
8064,RB,1,5,a,j,b,0,0.313
8064,RB,1,6,a,j,b,0,0.315
8064,RB,1,7,a,d,a,1,1.587
8064,RB,1,8,a,j,b,0,0.632
8064,RB,1,9,b,j,b,1,0.381
8064,RB,1,10,b,d,a,0,1.251
8064,RB,1,11,b,j,b,1,0.606
8064,RB,1,12,b,d,a,0,0.659
8064,RB,1,13,a,d,a,1,0.159
8064,RB,1,14,a,d,a,1,0.0
8064,RB,1,15,a,d,a,1,0.0
8064,RB,1,16,a,d,a,1,1.5519999999999998
8064,RB,1,17,b,j,b,1,0.662
8064,RB,1,18,a,d,a,1,1.034
8064,RB,1,19,a,j,b,0,0.6859999999999999
8064,RB,1,20,a,d,a,1,0.631
8064,RB,1,21,b,j,b,1,4.052
8064,RB,1,22,a,j,b,0,0.0
8064,RB,1,23,a,j,b,0,0.0
8064,RB,1,24,a,d,a,1,0.9440000000000001
8064,RB,1,25,a,j,b,0,1.8719999999999999
8064,RB,1,26,a,d,a,1,1.729
8064,RB,1,27,b,j,b,1,1.025
8064,RB,1,28,a,d,a,1,0.525
8064,RB,1,29,b,d,a,0,1.702
8064,RB,1,30,a,d,a,1,1.048
8064,RB,1,31,b,j,b,1,1.043
8064,RB,1,32,b,d,a,0,1.246
8064,RB,1,33,b,j,b,1,0.353
8064,RB,1,34,b,d,a,0,0.6729999999999999
8064,RB,1,35,a,d,a,1,0.682
8064,RB,1,36,b,j,b,1,0.748
8064,RB,1,37,a,d,a,1,0.5720000000000001
8064,RB,1,38,a,d,a,1,0.746
8064,RB,1,39,a,j,b,0,1.129
8064,RB,1,40,b,j,b,1,1.073
8064,RB,1,41,a,d,a,1,0.594
8064,RB,1,42,a,d,a,1,0.601
8064,RB,1,43,b,j,b,1,0.478
8064,RB,1,44,b,d,a,0,0.735
8064,RB,1,45,a,j,b,0,0.584
8064,RB,1,46,b,j,b,1,0.639
8064,RB,1,47,b,j,b,1,0.7759999999999999
8064,RB,1,48,a,d,a,1,0.6709999999999999
8064,RB,1,49,b,d,a,0,1.05
8064,RB,1,50,b,d,a,0,0.9570000000000001
8064,RB,1,51,b,j,b,1,0.915
8064,RB,1,52,b,j,b,1,0.909
8064,RB,1,53,a,d,a,1,0.917
8064,RB,1,54,a,d,a,1,0.59
8064,RB,1,55,b,j,b,1,0.578
8064,RB,1,56,a,d,a,1,0.6890000000000001
8064,RB,1,57,b,j,b,1,1.139
8064,RB,1,58,a,d,a,1,1.0170000000000001
8064,RB,1,59,b,j,b,1,1.023
8064,RB,1,60,b,j,b,1,0.8190000000000001
8064,RB,1,61,b,d,a,0,0.743
8064,RB,1,62,b,j,b,1,0.616
8064,RB,1,63,a,d,a,1,0.619
8064,RB,1,64,b,j,b,1,0.6559999999999999
8064,RB,1,65,a,d,a,1,0.619
8064,RB,1,66,a,d,a,1,0.815
8064,RB,1,67,b,j,b,1,0.685
8064,RB,1,68,b,d,a,0,0.855
8064,RB,1,69,a,j,b,0,0.37
8064,RB,1,70,b,d,a,0,0.321
8064,RB,1,71,a,j,b,0,0.48200000000000004
8064,RB,1,72,b,j,b,1,0.579
8064,RB,1,73,b,d,a,0,0.546
8064,RB,1,74,b,j,b,1,0.65
8064,RB,1,75,b,j,b,1,0.652
8064,RB,1,76,a,d,a,1,0.479
8064,RB,1,77,b,j,b,1,0.706
8064,RB,1,78,a,d,a,1,0.579
8064,RB,1,79,a,j,b,0,0.8009999999999999
8064,RB,1,80,a,d,a,1,0.51
8044,II,3,1,b,j,b,1,1.5730000000000002
8044,II,3,2,a,d,a,1,0.612
8044,II,3,3,a,d,a,1,0.505
8044,II,3,4,b,j,b,1,0.6579999999999999
8044,II,3,5,a,d,a,1,0.581
8044,II,3,6,b,d,a,0,0.515
8044,II,3,7,a,d,a,1,0.522
8044,II,3,8,a,j,b,0,0.556
8044,II,3,9,a,j,b,0,0.491
8044,II,3,10,a,j,b,0,0.34700000000000003
8044,II,3,11,b,j,b,1,0.491
8044,II,3,12,a,d,a,1,0.444
8044,II,3,13,b,j,b,1,0.56
8044,II,3,14,a,j,b,0,0.455
8044,II,3,15,b,j,b,1,1.018
8044,II,3,16,b,j,b,1,0.478
8044,II,3,17,b,j,b,1,0.433
8044,II,3,18,b,j,b,1,0.45399999999999996
8044,II,3,19,b,j,b,1,0.39899999999999997
8044,II,3,20,b,d,a,0,0.47
8044,II,3,21,b,j,b,1,1.76
8044,II,3,22,b,j,b,1,0.638
8044,II,3,23,b,d,a,0,0.818
8044,II,3,24,a,d,a,1,0.599
8044,II,3,25,b,j,b,1,1.052
8044,II,3,26,b,j,b,1,0.624
8044,II,3,27,b,j,b,1,0.46799999999999997
8044,II,3,28,a,j,b,0,0.45399999999999996
8044,II,3,29,a,j,b,0,0.746
8044,II,3,30,b,j,b,1,0.705
8044,II,3,31,b,j,b,1,0.514
8044,II,3,32,a,d,a,1,0.684
8044,II,3,33,b,j,b,1,0.598
8044,II,3,34,b,j,b,1,0.5710000000000001
8044,II,3,35,a,d,a,1,0.5379999999999999
8044,II,3,36,b,j,b,1,0.426
8044,II,3,37,a,j,b,0,0.541
8044,II,3,38,a,d,a,1,0.71
8044,II,3,39,b,d,a,0,0.51
8044,II,3,40,b,j,b,1,0.542
8044,II,3,41,a,j,b,0,0.47
8044,II,3,42,a,d,a,1,0.537
8044,II,3,43,b,j,b,1,0.616
8044,II,3,44,b,j,b,1,0.43799999999999994
8044,II,3,45,a,d,a,1,0.49
8044,II,3,46,a,j,b,0,0.491
8044,II,3,47,b,j,b,1,0.868
8044,II,3,48,a,j,b,0,0.47100000000000003
8044,II,3,49,b,d,a,0,0.5529999999999999
8044,II,3,50,a,d,a,1,0.433
8044,II,3,51,a,j,b,0,0.413
8044,II,3,52,a,d,a,1,0.491
8044,II,3,53,a,j,b,0,0.723
8044,II,3,54,a,j,b,0,0.619
8044,II,3,55,b,j,b,1,0.392
8044,II,3,56,a,d,a,1,0.59
8044,II,3,57,a,d,a,1,0.508
8044,II,3,58,a,j,b,0,0.40399999999999997
8044,II,3,59,b,j,b,1,0.561
8044,II,3,60,b,j,b,1,0.384
8044,II,3,61,b,j,b,1,0.591
8044,II,3,62,a,d,a,1,1.219
8044,II,3,63,b,d,a,0,0.664
8044,II,3,64,a,d,a,1,0.9159999999999999
8044,II,3,65,b,j,b,1,0.98
8044,II,3,66,a,d,a,1,0.914
8044,II,3,67,a,j,b,0,0.506
8044,II,3,68,a,d,a,1,0.546
8044,II,3,69,a,d,a,1,0.523
8044,II,3,70,a,d,a,1,1.818
8044,II,3,71,a,d,a,1,1.28
8044,II,3,72,b,d,a,0,1.264
8044,II,3,73,b,j,b,1,0.828
8044,II,3,74,b,j,b,1,0.5429999999999999
8044,II,3,75,b,j,b,1,0.40700000000000003
8044,II,3,76,a,d,a,1,0.603
8044,II,3,77,b,j,b,1,0.7140000000000001
8044,II,3,78,a,j,b,0,0.649
8044,II,3,79,a,j,b,0,0.469
8044,II,3,80,b,d,a,0,0.8959999999999999
8149,II,2,1,a,d,a,1,1.212
8149,II,2,2,b,d,a,0,0.848
8149,II,2,3,a,d,a,1,0.94
8149,II,2,4,b,j,b,1,0.828
8149,II,2,5,a,d,a,1,0.885
8149,II,2,6,b,j,b,1,1.3119999999999998
8149,II,2,7,b,d,a,0,0.696
8149,II,2,8,b,j,b,1,0.914
8149,II,2,9,b,d,a,0,1.268
8149,II,2,10,a,d,a,1,1.013
8149,II,2,11,b,d,a,0,1.331
8149,II,2,12,a,j,b,0,0.937
8149,II,2,13,a,d,a,1,1.01
8149,II,2,14,b,j,b,1,1.575
8149,II,2,15,b,j,b,1,0.909
8149,II,2,16,b,j,b,1,0.7170000000000001
8149,II,2,17,a,d,a,1,0.7809999999999999
8149,II,2,18,a,j,b,0,1.068
8149,II,2,19,b,d,a,0,0.893
8149,II,2,20,b,j,b,1,1.5119999999999998
8149,II,2,21,b,d,a,0,1.9040000000000001
8149,II,2,22,b,j,b,1,0.665
8149,II,2,23,a,d,a,1,0.748
8149,II,2,24,a,j,b,0,1.402
8149,II,2,25,a,d,a,1,0.9840000000000001
8149,II,2,26,b,d,a,0,1.485
8149,II,2,27,b,d,a,0,0.695
8149,II,2,28,a,d,a,1,0.89
8149,II,2,29,a,d,a,1,0.85
8149,II,2,30,a,j,b,0,0.935
8149,II,2,31,a,j,b,0,1.829
8149,II,2,32,b,j,b,1,0.77
8149,II,2,33,a,j,b,0,1.208
8149,II,2,34,b,j,b,1,0.557
8149,II,2,35,a,d,a,1,0.7490000000000001
8149,II,2,36,a,d,a,1,1.307
8149,II,2,37,b,d,a,0,0.9790000000000001
8149,II,2,38,a,d,a,1,1.297
8149,II,2,39,b,j,b,1,0.779
8149,II,2,40,b,d,a,0,1.546
8149,II,2,41,b,j,b,1,0.848
8149,II,2,42,a,j,b,0,0.948
8149,II,2,43,a,d,a,1,0.73
8149,II,2,44,b,j,b,1,1.251
8149,II,2,45,b,j,b,1,0.8759999999999999
8149,II,2,46,a,d,a,1,0.919
8149,II,2,47,a,d,a,1,1.072
8149,II,2,48,a,d,a,1,0.9620000000000001
8149,II,2,49,a,d,a,1,1.018
8149,II,2,50,a,d,a,1,1.125
8149,II,2,51,b,j,b,1,0.8140000000000001
8149,II,2,52,a,d,a,1,0.77
8149,II,2,53,a,j,b,0,1.304
8149,II,2,54,a,d,a,1,0.8340000000000001
8149,II,2,55,b,j,b,1,1.454
8149,II,2,56,b,j,b,1,0.953
8149,II,2,57,a,j,b,0,0.7909999999999999
8149,II,2,58,b,j,b,1,1.101
8149,II,2,59,a,d,a,1,0.871
8149,II,2,60,b,j,b,1,0.7120000000000001
8149,II,2,61,a,j,b,0,1.0270000000000001
8149,II,2,62,a,d,a,1,0.855
8149,II,2,63,b,j,b,1,0.914
8149,II,2,64,b,j,b,1,0.8190000000000001
8149,II,2,65,b,j,b,1,0.927
8149,II,2,66,a,j,b,0,0.696
8149,II,2,67,a,d,a,1,0.585
8149,II,2,68,a,d,a,1,0.5660000000000001
8149,II,2,69,b,d,a,0,1.341
8149,II,2,70,b,j,b,1,0.6859999999999999
8149,II,2,71,b,j,b,1,0.919
8149,II,2,72,a,j,b,0,1.024
8149,II,2,73,a,d,a,1,0.8190000000000001
8149,II,2,74,b,j,b,1,0.617
8149,II,2,75,b,j,b,1,1.1740000000000002
8149,II,2,76,a,d,a,1,0.835
8149,II,2,77,b,j,b,1,2.0
8149,II,2,78,b,j,b,1,1.291
8149,II,2,79,a,d,a,1,0.773
8149,II,2,80,b,d,a,0,1.035
8103,RB,1,1,a,j,b,0,1.17
8103,RB,1,2,a,j,b,0,0.705
8103,RB,1,3,b,d,a,0,0.402
8103,RB,1,4,b,j,b,1,0.617
8103,RB,1,5,a,d,a,1,0.516
8103,RB,1,6,b,j,b,1,0.382
8103,RB,1,7,a,j,b,0,0.564
8103,RB,1,8,b,d,a,0,0.778
8103,RB,1,9,b,j,b,1,0.384
8103,RB,1,10,b,j,b,1,0.47200000000000003
8103,RB,1,11,b,j,b,1,0.624
8103,RB,1,12,a,j,b,0,0.317
8103,RB,1,13,a,d,a,1,0.27899999999999997
8103,RB,1,14,b,d,a,0,0.904
8103,RB,1,15,b,j,b,1,0.514
8103,RB,1,16,a,d,a,1,0.5710000000000001
8103,RB,1,17,a,d,a,1,0.528
8103,RB,1,18,b,d,a,0,0.624
8103,RB,1,19,a,j,b,0,0.35
8103,RB,1,20,a,j,b,0,1.212
8103,RB,1,21,a,j,b,0,0.306
8103,RB,1,22,b,d,a,0,0.292
8103,RB,1,23,b,d,a,0,0.147
8103,RB,1,24,a,j,b,0,0.6829999999999999
8103,RB,1,25,b,d,a,0,0.278
8103,RB,1,26,a,d,a,1,0.22399999999999998
8103,RB,1,27,a,j,b,0,0.8190000000000001
8103,RB,1,28,b,d,a,0,0.0
8103,RB,1,29,b,d,a,0,0.5429999999999999
8103,RB,1,30,a,d,a,1,0.309
8103,RB,1,31,b,j,b,1,0.23800000000000002
8103,RB,1,32,b,j,b,1,0.747
8103,RB,1,33,a,j,b,0,0.402
8103,RB,1,34,b,j,b,1,0.599
8103,RB,1,35,a,d,a,1,0.789
8103,RB,1,36,a,d,a,1,0.835
8103,RB,1,37,a,d,a,1,0.726
8103,RB,1,38,a,d,a,1,0.743
8103,RB,1,39,b,j,b,1,0.509
8103,RB,1,40,b,j,b,1,0.462
8103,RB,1,41,a,d,a,1,0.6659999999999999
8103,RB,1,42,a,d,a,1,0.8290000000000001
8103,RB,1,43,a,d,a,1,0.56
8103,RB,1,44,a,d,a,1,0.47100000000000003
8103,RB,1,45,b,j,b,1,0.546
8103,RB,1,46,a,d,a,1,0.609
8103,RB,1,47,a,d,a,1,0.358
8103,RB,1,48,a,d,a,1,0.46
8103,RB,1,49,a,d,a,1,0.607
8103,RB,1,50,b,j,b,1,0.612
8103,RB,1,51,b,d,a,0,0.331
8103,RB,1,52,a,j,b,0,0.657
8103,RB,1,53,b,j,b,1,0.7240000000000001
8103,RB,1,54,b,d,a,0,0.35
8103,RB,1,55,a,d,a,1,0.66
8103,RB,1,56,b,d,a,0,0.0
8103,RB,1,57,b,j,b,1,0.502
8103,RB,1,58,b,j,b,1,0.518
8103,RB,1,59,a,d,a,1,0.688
8103,RB,1,60,a,j,b,0,0.826
8103,RB,1,61,b,j,b,1,0.597
8103,RB,1,62,b,j,b,1,0.58
8103,RB,1,63,a,j,b,0,0.49
8103,RB,1,64,b,j,b,1,0.5539999999999999
8103,RB,1,65,a,d,a,1,0.7120000000000001
8103,RB,1,66,b,j,b,1,0.643
8103,RB,1,67,a,d,a,1,0.45399999999999996
8103,RB,1,68,b,j,b,1,0.61
8103,RB,1,69,b,j,b,1,0.503
8103,RB,1,70,a,j,b,0,0.4
8103,RB,1,71,b,j,b,1,0.557
8103,RB,1,72,b,j,b,1,0.508
8103,RB,1,73,a,d,a,1,0.701
8103,RB,1,74,a,d,a,1,0.5820000000000001
8103,RB,1,75,b,j,b,1,0.573
8103,RB,1,76,b,d,a,0,0.41100000000000003
8103,RB,1,77,a,j,b,0,0.511
8103,RB,1,78,b,j,b,1,0.823
8103,RB,1,79,b,j,b,1,0.565
8103,RB,1,80,a,d,a,1,0.594
8032,II,2,1,a,d,a,1,1.93
8032,II,2,2,a,j,b,0,0.7759999999999999
8032,II,2,3,a,j,b,0,1.87
8032,II,2,4,b,d,a,0,0.609
8032,II,2,5,a,j,b,0,1.262
8032,II,2,6,a,d,a,1,0.8079999999999999
8032,II,2,7,a,d,a,1,1.173
8032,II,2,8,b,d,a,0,1.354
8032,II,2,9,b,d,a,0,1.3530000000000002
8032,II,2,10,a,d,a,1,0.76
8032,II,2,11,b,j,b,1,0.759
8032,II,2,12,b,d,a,0,0.903
8032,II,2,13,b,j,b,1,0.655
8032,II,2,14,b,j,b,1,0.618
8032,II,2,15,a,d,a,1,0.919
8032,II,2,16,b,j,b,1,2.855
8032,II,2,17,a,d,a,1,0.618
8032,II,2,18,a,d,a,1,0.647
8032,II,2,19,a,d,a,1,0.523
8032,II,2,20,a,d,a,1,0.418
8032,II,2,21,a,d,a,1,0.447
8032,II,2,22,b,j,b,1,1.891
8032,II,2,23,b,j,b,1,0.723
8032,II,2,24,a,d,a,1,1.036
8032,II,2,25,a,d,a,1,0.64
8032,II,2,26,b,d,a,0,0.9390000000000001
8032,II,2,27,b,j,b,1,0.764
8032,II,2,28,b,j,b,1,1.025
8032,II,2,29,a,d,a,1,0.75
8032,II,2,30,a,j,b,0,0.725
8032,II,2,31,a,d,a,1,0.461
8032,II,2,32,b,j,b,1,0.8
8032,II,2,33,a,d,a,1,0.45299999999999996
8032,II,2,34,b,j,b,1,0.7120000000000001
8032,II,2,35,b,j,b,1,0.698
8032,II,2,36,a,d,a,1,0.58
8032,II,2,37,a,d,a,1,0.512
8032,II,2,38,b,j,b,1,0.6659999999999999
8032,II,2,39,a,j,b,0,0.645
8032,II,2,40,a,d,a,1,0.415
8032,II,2,41,b,j,b,1,1.524
8032,II,2,42,a,d,a,1,0.363
8032,II,2,43,a,j,b,0,0.731
8032,II,2,44,b,d,a,0,0.6829999999999999
8032,II,2,45,a,d,a,1,1.276
8032,II,2,46,b,j,b,1,0.5670000000000001
8032,II,2,47,b,d,a,0,0.621
8032,II,2,48,b,j,b,1,0.34600000000000003
8032,II,2,49,a,d,a,1,0.569
8032,II,2,50,a,j,b,0,0.544
8032,II,2,51,a,d,a,1,0.679
8032,II,2,52,b,j,b,1,0.73
8032,II,2,53,b,j,b,1,0.898
8032,II,2,54,b,d,a,0,0.778
8032,II,2,55,a,j,b,0,0.305
8032,II,2,56,a,d,a,1,0.8270000000000001
8032,II,2,57,a,j,b,0,0.606
8032,II,2,58,b,j,b,1,1.46
8032,II,2,59,a,d,a,1,0.589
8032,II,2,60,b,d,a,0,0.611
8032,II,2,61,a,d,a,1,1.3519999999999999
8032,II,2,62,a,d,a,1,0.607
8032,II,2,63,b,j,b,1,0.62
8032,II,2,64,b,j,b,1,1.7690000000000001
8032,II,2,65,b,d,a,0,0.575
8032,II,2,66,a,j,b,0,0.342
8032,II,2,67,a,d,a,1,0.42
8032,II,2,68,b,j,b,1,1.2570000000000001
8032,II,2,69,a,d,a,1,0.636
8032,II,2,70,b,d,a,0,1.919
8032,II,2,71,a,j,b,0,0.8320000000000001
8032,II,2,72,b,d,a,0,0.9229999999999999
8032,II,2,73,b,j,b,1,0.62
8032,II,2,74,b,j,b,1,0.649
8032,II,2,75,b,j,b,1,0.44299999999999995
8032,II,2,76,b,j,b,1,0.36700000000000005
8032,II,2,77,a,j,b,0,0.335
8032,II,2,78,b,d,a,0,0.39799999999999996
8032,II,2,79,b,j,b,1,0.41200000000000003
8032,II,2,80,b,j,b,1,0.825
8019,RB,3,1,a,d,a,1,1.16
8019,RB,3,2,a,d,a,1,0.759
8019,RB,3,3,b,j,b,1,0.517
8019,RB,3,4,a,d,a,1,0.574
8019,RB,3,5,b,j,b,1,0.62
8019,RB,3,6,b,j,b,1,0.537
8019,RB,3,7,a,d,a,1,0.6409999999999999
8019,RB,3,8,b,j,b,1,0.501
8019,RB,3,9,b,j,b,1,0.526
8019,RB,3,10,a,d,a,1,0.495
8019,RB,3,11,a,d,a,1,0.599
8019,RB,3,12,a,d,a,1,0.526
8019,RB,3,13,b,j,b,1,0.478
8019,RB,3,14,a,d,a,1,0.511
8019,RB,3,15,b,j,b,1,0.504
8019,RB,3,16,b,j,b,1,0.522
8019,RB,3,17,b,j,b,1,0.434
8019,RB,3,18,a,d,a,1,0.494
8019,RB,3,19,b,j,b,1,0.848
8019,RB,3,20,b,j,b,1,0.442
8019,RB,3,21,b,j,b,1,1.246
8019,RB,3,22,b,j,b,1,0.474
8019,RB,3,23,a,d,a,1,0.531
8019,RB,3,24,a,d,a,1,0.49200000000000005
8019,RB,3,25,b,j,b,1,0.518
8019,RB,3,26,a,d,a,1,0.47
8019,RB,3,27,b,j,b,1,0.5529999999999999
8019,RB,3,28,a,d,a,1,0.544
8019,RB,3,29,a,d,a,1,0.542
8019,RB,3,30,a,d,a,1,0.479
8019,RB,3,31,b,j,b,1,0.521
8019,RB,3,32,b,j,b,1,0.505
8019,RB,3,33,a,d,a,1,0.522
8019,RB,3,34,b,j,b,1,0.419
8019,RB,3,35,a,d,a,1,0.591
8019,RB,3,36,b,j,b,1,0.46799999999999997
8019,RB,3,37,a,j,b,0,0.8
8019,RB,3,38,a,d,a,1,0.534
8019,RB,3,39,a,d,a,1,0.5
8019,RB,3,40,a,d,a,1,0.575
8019,RB,3,41,a,d,a,1,0.653
8019,RB,3,42,a,d,a,1,0.823
8019,RB,3,43,b,j,b,1,0.444
8019,RB,3,44,a,d,a,1,0.624
8019,RB,3,45,a,d,a,1,0.61
8019,RB,3,46,a,d,a,1,1.104
8019,RB,3,47,a,d,a,1,0.624
8019,RB,3,48,a,d,a,1,0.6940000000000001
8019,RB,3,49,b,j,b,1,0.551
8019,RB,3,50,a,d,a,1,0.621
8019,RB,3,51,b,j,b,1,0.489
8019,RB,3,52,b,j,b,1,0.5479999999999999
8019,RB,3,53,a,d,a,1,0.603
8019,RB,3,54,b,j,b,1,0.423
8019,RB,3,55,b,j,b,1,0.501
8019,RB,3,56,a,d,a,1,0.47100000000000003
8019,RB,3,57,a,d,a,1,0.433
8019,RB,3,58,b,d,a,0,0.637
8019,RB,3,59,b,j,b,1,0.49
8019,RB,3,60,b,j,b,1,0.475
8019,RB,3,61,a,d,a,1,0.5489999999999999
8019,RB,3,62,b,j,b,1,0.43700000000000006
8019,RB,3,63,b,j,b,1,0.504
8019,RB,3,64,b,j,b,1,0.522
8019,RB,3,65,b,j,b,1,0.466
8019,RB,3,66,b,j,b,1,0.524
8019,RB,3,67,a,d,a,1,0.42
8019,RB,3,68,b,j,b,1,0.49
8019,RB,3,69,b,j,b,1,0.532
8019,RB,3,70,a,d,a,1,0.611
8019,RB,3,71,a,d,a,1,0.48100000000000004
8019,RB,3,72,a,d,a,1,0.475
8019,RB,3,73,b,j,b,1,0.532
8019,RB,3,74,b,j,b,1,0.46799999999999997
8019,RB,3,75,b,j,b,1,0.512
8019,RB,3,76,a,d,a,1,0.631
8019,RB,3,77,a,d,a,1,0.524
8019,RB,3,78,b,j,b,1,0.596
8019,RB,3,79,b,j,b,1,0.473
8019,RB,3,80,a,d,a,1,0.509
8059,II,2,1,b,d,a,0,1.489
8059,II,2,2,b,d,a,0,0.73
8059,II,2,3,b,d,a,0,0.779
8059,II,2,4,b,d,a,0,0.61
8059,II,2,5,a,j,b,0,0.478
8059,II,2,6,b,d,a,0,0.512
8059,II,2,7,a,j,b,0,0.633
8059,II,2,8,b,j,b,1,0.565
8059,II,2,9,a,d,a,1,0.604
8059,II,2,10,a,j,b,0,0.426
8059,II,2,11,b,j,b,1,0.542
8059,II,2,12,b,j,b,1,0.693
8059,II,2,13,b,j,b,1,0.446
8059,II,2,14,b,j,b,1,0.418
8059,II,2,15,a,j,b,0,0.45399999999999996
8059,II,2,16,b,d,a,0,0.418
8059,II,2,17,a,d,a,1,0.391
8059,II,2,18,b,d,a,0,0.38
8059,II,2,19,b,j,b,1,0.298
8059,II,2,20,a,j,b,0,0.332
8059,II,2,21,a,j,b,0,0.54
8059,II,2,22,a,d,a,1,0.499
8059,II,2,23,b,j,b,1,0.35700000000000004
8059,II,2,24,b,j,b,1,0.485
8059,II,2,25,b,d,a,0,0.894
8059,II,2,26,a,d,a,1,0.623
8059,II,2,27,a,j,b,0,0.38799999999999996
8059,II,2,28,b,j,b,1,0.401
8059,II,2,29,a,j,b,0,0.36
8059,II,2,30,b,d,a,0,0.055
8059,II,2,31,b,d,a,0,0.314
8059,II,2,32,a,j,b,0,0.425
8059,II,2,33,b,j,b,1,1.014
8059,II,2,34,a,j,b,0,0.531
8059,II,2,35,a,d,a,1,0.97
8059,II,2,36,a,d,a,1,1.234
8059,II,2,37,b,d,a,0,0.541
8059,II,2,38,a,d,a,1,0.7490000000000001
8059,II,2,39,a,d,a,1,0.917
8059,II,2,40,b,j,b,1,0.564
8059,II,2,41,a,d,a,1,0.539
8059,II,2,42,b,j,b,1,0.8440000000000001
8059,II,2,43,b,j,b,1,0.573
8059,II,2,44,b,j,b,1,0.405
8059,II,2,45,a,j,b,0,0.491
8059,II,2,46,b,j,b,1,0.49
8059,II,2,47,a,d,a,1,0.493
8059,II,2,48,b,d,a,0,0.488
8059,II,2,49,b,j,b,1,0.336
8059,II,2,50,a,j,b,0,0.441
8059,II,2,51,a,j,b,0,0.292
8059,II,2,52,b,d,a,0,0.311
8059,II,2,53,b,j,b,1,0.239
8059,II,2,54,b,j,b,1,0.32299999999999995
8059,II,2,55,a,j,b,0,0.22699999999999998
8059,II,2,56,a,d,a,1,0.43799999999999994
8059,II,2,57,a,d,a,1,0.442
8059,II,2,58,a,d,a,1,0.358
8059,II,2,59,a,d,a,1,0.397
8059,II,2,60,b,d,a,0,0.457
8059,II,2,61,b,j,b,1,0.45299999999999996
8059,II,2,62,a,j,b,0,0.529
8059,II,2,63,b,j,b,1,0.488
8059,II,2,64,a,j,b,0,0.531
8059,II,2,65,b,j,b,1,0.475
8059,II,2,66,a,d,a,1,0.508
8059,II,2,67,a,j,b,0,0.614
8059,II,2,68,a,j,b,0,0.34700000000000003
8059,II,2,69,a,d,a,1,0.299
8059,II,2,70,a,d,a,1,0.371
8059,II,2,71,b,d,a,0,0.434
8059,II,2,72,b,j,b,1,0.23800000000000002
8059,II,2,73,b,j,b,1,0.433
8059,II,2,74,a,d,a,1,0.287
8059,II,2,75,a,j,b,0,0.345
8059,II,2,76,a,j,b,0,0.29600000000000004
8059,II,2,77,b,d,a,0,0.361
8059,II,2,78,b,d,a,0,0.321
8059,II,2,79,a,d,a,1,0.41
8059,II,2,80,a,j,b,0,0.349
8041,RB,2,1,a,j,b,0,1.605
8041,RB,2,2,a,d,a,1,1.153
8041,RB,2,3,b,d,a,0,1.24
8041,RB,2,4,b,d,a,0,0.332
8041,RB,2,5,a,d,a,1,0.315
8041,RB,2,6,b,j,b,1,0.461
8041,RB,2,7,b,j,b,1,0.49700000000000005
8041,RB,2,8,b,d,a,0,1.416
8041,RB,2,9,a,j,b,0,0.838
8041,RB,2,10,a,d,a,1,0.257
8041,RB,2,11,a,d,a,1,0.47700000000000004
8041,RB,2,12,a,d,a,1,0.35100000000000003
8041,RB,2,13,a,j,b,0,0.127
8041,RB,2,14,a,j,b,0,0.126
8041,RB,2,15,b,j,b,1,0.134
8041,RB,2,16,b,j,b,1,0.255
8041,RB,2,17,b,d,a,0,0.059000000000000004
8041,RB,2,18,b,d,a,0,0.045
8041,RB,2,19,a,d,a,1,0.09699999999999999
8041,RB,2,20,b,d,a,0,0.10800000000000001
8041,RB,2,21,b,d,a,0,0.18
8041,RB,2,22,b,d,a,0,0.083
8041,RB,2,23,b,d,a,0,0.444
8041,RB,2,24,b,d,a,0,0.255
8041,RB,2,25,b,d,a,0,0.292
8041,RB,2,26,a,d,a,1,0.33899999999999997
8041,RB,2,27,b,d,a,0,0.253
8041,RB,2,28,b,d,a,0,1.208
8041,RB,2,29,b,j,b,1,0.11900000000000001
8041,RB,2,30,a,j,b,0,0.414
8041,RB,2,31,a,j,b,0,0.21899999999999997
8041,RB,2,32,a,d,a,1,1.9680000000000002
8041,RB,2,33,b,j,b,1,1.19
8041,RB,2,34,a,d,a,1,0.8190000000000001
8041,RB,2,35,a,d,a,1,0.359
8041,RB,2,36,a,j,b,0,0.358
8041,RB,2,37,b,j,b,1,0.23800000000000002
8041,RB,2,38,a,j,b,0,0.6890000000000001
8041,RB,2,39,a,d,a,1,0.203
8041,RB,2,40,a,d,a,1,0.282
8041,RB,2,41,b,d,a,0,0.196
8041,RB,2,42,a,d,a,1,0.52
8041,RB,2,43,a,d,a,1,0.306
8041,RB,2,44,a,d,a,1,0.3
8041,RB,2,45,b,j,b,1,0.077
8041,RB,2,46,a,j,b,0,0.0
8041,RB,2,47,a,j,b,0,0.092
8041,RB,2,48,a,d,a,1,0.0
8041,RB,2,49,b,j,b,1,0.0
8041,RB,2,50,b,j,b,1,0.002
8041,RB,2,51,a,d,a,1,0.0
8041,RB,2,52,b,d,a,0,0.301
8041,RB,2,53,b,j,b,1,0.07200000000000001
8041,RB,2,54,b,j,b,1,0.314
8041,RB,2,55,b,d,a,0,0.289
8041,RB,2,56,b,d,a,0,0.075
8041,RB,2,57,a,d,a,1,0.002
8041,RB,2,58,a,j,b,0,0.004
8041,RB,2,59,b,j,b,1,0.616
8041,RB,2,60,a,j,b,0,0.31
8041,RB,2,61,b,j,b,1,0.0
8041,RB,2,62,b,d,a,0,0.28300000000000003
8041,RB,2,63,a,j,b,0,0.071
8041,RB,2,64,a,j,b,0,0.057999999999999996
8041,RB,2,65,b,j,b,1,0.02
8041,RB,2,66,a,j,b,0,0.105
8041,RB,2,67,a,d,a,1,0.0
8041,RB,2,68,b,d,a,0,0.184
8041,RB,2,69,b,j,b,1,0.231
8041,RB,2,70,b,j,b,1,0.684
8041,RB,2,71,b,j,b,1,0.348
8041,RB,2,72,a,j,b,0,0.213
8041,RB,2,73,b,j,b,1,0.19399999999999998
8041,RB,2,74,a,d,a,1,0.094
8041,RB,2,75,a,j,b,0,0.136
8041,RB,2,76,a,d,a,1,0.297
8041,RB,2,77,b,j,b,1,0.034
8041,RB,2,78,b,j,b,1,0.287
8041,RB,2,79,a,d,a,1,0.111
8041,RB,2,80,a,j,b,0,0.25
8001,RB,3,1,a,d,a,1,1.1079999999999999
8001,RB,3,2,b,j,b,1,0.491
8001,RB,3,3,a,d,a,1,0.7509999999999999
8001,RB,3,4,a,d,a,1,0.581
8001,RB,3,5,b,j,b,1,0.65
8001,RB,3,6,b,j,b,1,0.52
8001,RB,3,7,b,j,b,1,0.391
8001,RB,3,8,a,d,a,1,0.509
8001,RB,3,9,b,j,b,1,0.614
8001,RB,3,10,a,d,a,1,1.082
8001,RB,3,11,a,d,a,1,0.54
8001,RB,3,12,a,d,a,1,0.413
8001,RB,3,13,a,d,a,1,0.424
8001,RB,3,14,a,d,a,1,0.645
8001,RB,3,15,b,j,b,1,0.46399999999999997
8001,RB,3,16,a,d,a,1,0.925
8001,RB,3,17,a,d,a,1,0.652
8001,RB,3,18,b,j,b,1,0.6
8001,RB,3,19,b,j,b,1,0.604
8001,RB,3,20,b,j,b,1,0.634
8001,RB,3,21,b,j,b,1,0.63
8001,RB,3,22,b,j,b,1,0.41700000000000004
8001,RB,3,23,a,d,a,1,0.774
8001,RB,3,24,b,j,b,1,0.669
8001,RB,3,25,a,d,a,1,0.703
8001,RB,3,26,b,j,b,1,0.5770000000000001
8001,RB,3,27,a,d,a,1,0.639
8001,RB,3,28,b,j,b,1,0.618
8001,RB,3,29,a,d,a,1,0.735
8001,RB,3,30,a,d,a,1,0.632
8001,RB,3,31,a,d,a,1,0.48200000000000004
8001,RB,3,32,b,j,b,1,0.606
8001,RB,3,33,a,d,a,1,0.619
8001,RB,3,34,a,d,a,1,0.9109999999999999
8001,RB,3,35,a,d,a,1,0.6
8001,RB,3,36,b,j,b,1,0.637
8001,RB,3,37,a,d,a,1,0.85
8001,RB,3,38,b,j,b,1,0.708
8001,RB,3,39,b,j,b,1,0.5429999999999999
8001,RB,3,40,a,d,a,1,0.589
8001,RB,3,41,b,j,b,1,0.579
8001,RB,3,42,a,d,a,1,0.898
8001,RB,3,43,a,d,a,1,0.506
8001,RB,3,44,a,d,a,1,0.659
8001,RB,3,45,a,d,a,1,0.47
8001,RB,3,46,b,j,b,1,0.536
8001,RB,3,47,b,j,b,1,0.505
8001,RB,3,48,a,d,a,1,0.802
8001,RB,3,49,b,j,b,1,0.7509999999999999
8001,RB,3,50,a,d,a,1,0.599
8001,RB,3,51,b,j,b,1,0.557
8001,RB,3,52,b,j,b,1,0.466
8001,RB,3,53,b,j,b,1,0.43700000000000006
8001,RB,3,54,a,d,a,1,0.6509999999999999
8001,RB,3,55,a,d,a,1,0.501
8001,RB,3,56,a,d,a,1,0.526
8001,RB,3,57,a,d,a,1,0.503
8001,RB,3,58,b,j,b,1,0.44
8001,RB,3,59,b,j,b,1,0.603
8001,RB,3,60,a,j,b,0,0.5539999999999999
8001,RB,3,61,a,d,a,1,0.624
8001,RB,3,62,a,d,a,1,0.941
8001,RB,3,63,b,j,b,1,0.644
8001,RB,3,64,b,j,b,1,0.502
8001,RB,3,65,b,j,b,1,0.552
8001,RB,3,66,b,j,b,1,0.392
8001,RB,3,67,a,j,b,0,0.501
8001,RB,3,68,b,j,b,1,0.71
8001,RB,3,69,b,j,b,1,0.529
8001,RB,3,70,b,j,b,1,0.495
8001,RB,3,71,a,d,a,1,0.505
8001,RB,3,72,a,d,a,1,0.603
8001,RB,3,73,b,j,b,1,0.441
8001,RB,3,74,b,j,b,1,0.515
8001,RB,3,75,b,j,b,1,0.5329999999999999
8001,RB,3,76,b,j,b,1,0.493
8001,RB,3,77,b,j,b,1,0.637
8001,RB,3,78,a,d,a,1,0.609
8001,RB,3,79,a,d,a,1,0.648
8001,RB,3,80,b,j,b,1,0.514
8020,II,3,1,b,d,a,0,2.71
8020,II,3,2,a,j,b,0,0.0
8020,II,3,3,b,j,b,1,0.852
8020,II,3,4,b,d,a,0,0.8059999999999999
8020,II,3,5,a,d,a,1,0.971
8020,II,3,6,b,j,b,1,0.5870000000000001
8020,II,3,7,a,d,a,1,0.679
8020,II,3,8,a,d,a,1,0.602
8020,II,3,9,a,d,a,1,0.35200000000000004
8020,II,3,10,b,d,a,0,0.479
8020,II,3,11,b,j,b,1,0.737
8020,II,3,12,a,d,a,1,0.601
8020,II,3,13,a,d,a,1,0.462
8020,II,3,14,b,d,a,0,0.665
8020,II,3,15,a,d,a,1,0.605
8020,II,3,16,a,d,a,1,0.545
8020,II,3,17,a,d,a,1,0.912
8020,II,3,18,a,j,b,0,0.61
8020,II,3,19,a,j,b,0,0.469
8020,II,3,20,b,d,a,0,0.585
8020,II,3,21,a,d,a,1,1.4709999999999999
8020,II,3,22,b,d,a,0,0.489
8020,II,3,23,a,d,a,1,0.5710000000000001
8020,II,3,24,b,j,b,1,0.41
8020,II,3,25,b,j,b,1,0.55
8020,II,3,26,a,j,b,0,0.502
8020,II,3,27,b,j,b,1,1.1840000000000002
8020,II,3,28,a,d,a,1,0.9329999999999999
8020,II,3,29,b,j,b,1,0.621
8020,II,3,30,a,d,a,1,0.785
8020,II,3,31,b,d,a,0,0.615
8020,II,3,32,a,d,a,1,0.757
8020,II,3,33,b,j,b,1,0.715
8020,II,3,34,a,d,a,1,0.82
8020,II,3,35,b,j,b,1,1.129
8020,II,3,36,a,d,a,1,0.856
8020,II,3,37,a,d,a,1,1.0590000000000002
8020,II,3,38,b,j,b,1,0.846
8020,II,3,39,a,d,a,1,0.7859999999999999
8020,II,3,40,b,j,b,1,0.7609999999999999
8020,II,3,41,a,d,a,1,0.7659999999999999
8020,II,3,42,b,j,b,1,1.165
8020,II,3,43,b,j,b,1,1.709
8020,II,3,44,b,j,b,1,0.708
8020,II,3,45,b,j,b,1,0.6609999999999999
8020,II,3,46,b,d,a,0,0.752
8020,II,3,47,b,j,b,1,0.816
8020,II,3,48,a,d,a,1,0.8290000000000001
8020,II,3,49,a,d,a,1,0.9690000000000001
8020,II,3,50,a,d,a,1,0.687
8020,II,3,51,b,d,a,0,1.48
8020,II,3,52,a,d,a,1,0.715
8020,II,3,53,a,d,a,1,0.836
8020,II,3,54,a,d,a,1,1.1840000000000002
8020,II,3,55,a,d,a,1,0.8140000000000001
8020,II,3,56,b,d,a,0,0.762
8020,II,3,57,b,j,b,1,0.625
8020,II,3,58,b,j,b,1,0.509
8020,II,3,59,a,d,a,1,0.621
8020,II,3,60,a,d,a,1,0.698
8020,II,3,61,b,j,b,1,0.804
8020,II,3,62,b,j,b,1,0.9129999999999999
8020,II,3,63,b,j,b,1,0.473
8020,II,3,64,b,j,b,1,0.54
8020,II,3,65,a,d,a,1,0.626
8020,II,3,66,a,j,b,0,1.4869999999999999
8020,II,3,67,a,d,a,1,0.665
8020,II,3,68,b,j,b,1,0.7559999999999999
8020,II,3,69,b,d,a,0,0.578
8020,II,3,70,b,j,b,1,0.759
8020,II,3,71,b,j,b,1,0.423
8020,II,3,72,b,j,b,1,0.5
8020,II,3,73,b,j,b,1,0.452
8020,II,3,74,a,d,a,1,0.608
8020,II,3,75,a,j,b,0,0.7659999999999999
8020,II,3,76,b,j,b,1,0.435
8020,II,3,77,a,j,b,0,0.544
8020,II,3,78,a,d,a,1,0.6
8020,II,3,79,a,d,a,1,0.5329999999999999
8020,II,3,80,b,d,a,0,1.3019999999999998
8098,RB,3,1,a,d,a,1,0.7609999999999999
8098,RB,3,2,a,d,a,1,0.423
8098,RB,3,3,a,j,b,0,0.47600000000000003
8098,RB,3,4,a,d,a,1,0.6459999999999999
8098,RB,3,5,b,j,b,1,0.536
8098,RB,3,6,a,j,b,0,0.39299999999999996
8098,RB,3,7,b,j,b,1,0.46299999999999997
8098,RB,3,8,a,d,a,1,0.6509999999999999
8098,RB,3,9,b,j,b,1,0.493
8098,RB,3,10,b,j,b,1,0.599
8098,RB,3,11,b,j,b,1,0.45299999999999996
8098,RB,3,12,b,j,b,1,0.406
8098,RB,3,13,b,j,b,1,0.41200000000000003
8098,RB,3,14,a,d,a,1,0.5770000000000001
8098,RB,3,15,b,j,b,1,0.446
8098,RB,3,16,b,j,b,1,0.522
8098,RB,3,17,b,j,b,1,0.402
8098,RB,3,18,a,d,a,1,0.519
8098,RB,3,19,a,d,a,1,0.41600000000000004
8098,RB,3,20,a,d,a,1,0.5660000000000001
8098,RB,3,21,b,j,b,1,0.547
8098,RB,3,22,a,d,a,1,0.532
8098,RB,3,23,b,j,b,1,0.41200000000000003
8098,RB,3,24,b,j,b,1,0.41700000000000004
8098,RB,3,25,a,d,a,1,0.613
8098,RB,3,26,b,j,b,1,0.45799999999999996
8098,RB,3,27,b,j,b,1,0.469
8098,RB,3,28,a,d,a,1,0.519
8098,RB,3,29,a,d,a,1,0.536
8098,RB,3,30,a,d,a,1,0.48100000000000004
8098,RB,3,31,a,d,a,1,0.513
8098,RB,3,32,a,d,a,1,0.54
8098,RB,3,33,b,j,b,1,0.491
8098,RB,3,34,b,j,b,1,0.42
8098,RB,3,35,a,d,a,1,0.6729999999999999
8098,RB,3,36,a,d,a,1,0.684
8098,RB,3,37,b,j,b,1,0.47600000000000003
8098,RB,3,38,b,j,b,1,0.496
8098,RB,3,39,b,j,b,1,0.41700000000000004
8098,RB,3,40,a,d,a,1,0.534
8098,RB,3,41,a,j,b,0,0.41200000000000003
8098,RB,3,42,b,j,b,1,0.635
8098,RB,3,43,a,d,a,1,0.759
8098,RB,3,44,b,j,b,1,0.524
8098,RB,3,45,a,d,a,1,0.574
8098,RB,3,46,a,d,a,1,0.484
8098,RB,3,47,a,d,a,1,0.6679999999999999
8098,RB,3,48,b,j,b,1,0.736
8098,RB,3,49,a,d,a,1,0.665
8098,RB,3,50,a,d,a,1,0.5539999999999999
8098,RB,3,51,b,j,b,1,0.499
8098,RB,3,52,a,d,a,1,0.8759999999999999
8098,RB,3,53,b,j,b,1,0.461
8098,RB,3,54,b,j,b,1,0.5770000000000001
8098,RB,3,55,a,d,a,1,0.655
8098,RB,3,56,a,j,b,0,1.2570000000000001
8098,RB,3,57,b,j,b,1,0.397
8098,RB,3,58,b,j,b,1,0.418
8098,RB,3,59,a,d,a,1,0.662
8098,RB,3,60,a,d,a,1,0.442
8098,RB,3,61,a,d,a,1,0.517
8098,RB,3,62,b,j,b,1,0.6759999999999999
8098,RB,3,63,b,j,b,1,0.647
8098,RB,3,64,a,d,a,1,1.052
8098,RB,3,65,b,j,b,1,0.494
8098,RB,3,66,b,j,b,1,0.544
8098,RB,3,67,a,d,a,1,0.856
8098,RB,3,68,b,j,b,1,0.6659999999999999
8098,RB,3,69,b,j,b,1,0.5489999999999999
8098,RB,3,70,a,d,a,1,0.5710000000000001
8098,RB,3,71,b,j,b,1,0.9790000000000001
8098,RB,3,72,b,j,b,1,0.474
8098,RB,3,73,a,d,a,1,0.626
8098,RB,3,74,b,j,b,1,0.5589999999999999
8098,RB,3,75,b,j,b,1,0.583
8098,RB,3,76,b,j,b,1,0.46
8098,RB,3,77,a,d,a,1,0.6
8098,RB,3,78,b,j,b,1,0.45299999999999996
8098,RB,3,79,a,d,a,1,0.505
8098,RB,3,80,a,d,a,1,0.5539999999999999
8105,RB,2,1,b,d,a,0,0.815
8105,RB,2,2,b,j,b,1,0.35600000000000004
8105,RB,2,3,b,j,b,1,0.57
8105,RB,2,4,b,j,b,1,0.305
8105,RB,2,5,a,d,a,1,0.77
8105,RB,2,6,b,d,a,0,0.409
8105,RB,2,7,b,j,b,1,0.35
8105,RB,2,8,a,j,b,0,0.429
8105,RB,2,9,a,d,a,1,0.258
8105,RB,2,10,b,d,a,0,0.452
8105,RB,2,11,b,j,b,1,0.527
8105,RB,2,12,a,d,a,1,0.7929999999999999
8105,RB,2,13,a,j,b,0,0.0
8105,RB,2,14,b,d,a,0,0.402
8105,RB,2,15,b,j,b,1,0.5529999999999999
8105,RB,2,16,a,d,a,1,0.41600000000000004
8105,RB,2,17,b,d,a,0,0.41200000000000003
8105,RB,2,18,b,j,b,1,0.313
8105,RB,2,19,a,j,b,0,0.027000000000000003
8105,RB,2,20,b,d,a,0,0.19
8105,RB,2,21,a,j,b,0,0.364
8105,RB,2,22,a,d,a,1,1.147
8105,RB,2,23,b,d,a,0,0.873
8105,RB,2,24,b,d,a,0,0.611
8105,RB,2,25,a,j,b,0,0.546
8105,RB,2,26,a,d,a,1,1.071
8105,RB,2,27,a,d,a,1,0.882
8105,RB,2,28,b,j,b,1,0.637
8105,RB,2,29,a,d,a,1,1.033
8105,RB,2,30,a,d,a,1,1.253
8105,RB,2,31,a,j,b,0,0.887
8105,RB,2,32,a,d,a,1,0.978
8105,RB,2,33,b,j,b,1,0.872
8105,RB,2,34,b,j,b,1,0.922
8105,RB,2,35,b,j,b,1,1.091
8105,RB,2,36,b,j,b,1,0.9079999999999999
8105,RB,2,37,a,d,a,1,0.853
8105,RB,2,38,a,d,a,1,0.9209999999999999
8105,RB,2,39,a,d,a,1,0.768
8105,RB,2,40,a,d,a,1,0.624
8105,RB,2,41,b,j,b,1,0.835
8105,RB,2,42,a,j,b,0,0.639
8105,RB,2,43,b,j,b,1,0.875
8105,RB,2,44,a,d,a,1,0.444
8105,RB,2,45,b,j,b,1,0.616
8105,RB,2,46,b,d,a,0,1.645
8105,RB,2,47,b,j,b,1,0.544
8105,RB,2,48,a,j,b,0,1.0
8105,RB,2,49,a,d,a,1,0.66
8105,RB,2,50,a,d,a,1,0.519
8105,RB,2,51,b,j,b,1,0.648
8105,RB,2,52,a,d,a,1,0.203
8105,RB,2,53,b,j,b,1,1.12
8105,RB,2,54,a,d,a,1,0.026000000000000002
8105,RB,2,55,a,d,a,1,0.623
8105,RB,2,56,a,d,a,1,0.619
8105,RB,2,57,a,d,a,1,0.871
8105,RB,2,58,a,d,a,1,0.708
8105,RB,2,59,b,j,b,1,0.732
8105,RB,2,60,b,j,b,1,0.772
8105,RB,2,61,a,d,a,1,0.8640000000000001
8105,RB,2,62,a,d,a,1,0.965
8105,RB,2,63,a,d,a,1,0.66
8105,RB,2,64,b,j,b,1,0.598
8105,RB,2,65,b,j,b,1,0.755
8105,RB,2,66,a,d,a,1,0.867
8105,RB,2,67,b,j,b,1,0.63
8105,RB,2,68,b,j,b,1,0.722
8105,RB,2,69,b,j,b,1,0.883
8105,RB,2,70,a,d,a,1,0.828
8105,RB,2,71,b,j,b,1,0.601
8105,RB,2,72,b,j,b,1,0.701
8105,RB,2,73,b,j,b,1,0.51
8105,RB,2,74,a,d,a,1,0.272
8105,RB,2,75,b,j,b,1,0.603
8105,RB,2,76,b,j,b,1,0.96
8105,RB,2,77,a,d,a,1,0.718
8105,RB,2,78,a,d,a,1,0.855
8105,RB,2,79,a,d,a,1,0.6579999999999999
8105,RB,2,80,b,j,b,1,0.598
8004,II,1,1,a,d,a,1,2.386
8004,II,1,2,a,d,a,1,0.9670000000000001
8004,II,1,3,b,d,a,0,0.557
8004,II,1,4,a,d,a,1,1.044
8004,II,1,5,a,d,a,1,1.143
8004,II,1,6,a,j,b,0,0.679
8004,II,1,7,b,d,a,0,1.024
8004,II,1,8,b,j,b,1,1.4369999999999998
8004,II,1,9,a,j,b,0,3.5210000000000004
8004,II,1,10,b,d,a,0,1.001
8004,II,1,11,a,d,a,1,0.862
8004,II,1,12,a,j,b,0,0.56
8004,II,1,13,b,d,a,0,4.334
8004,II,1,14,b,j,b,1,0.8290000000000001
8004,II,1,15,b,d,a,0,2.713
8004,II,1,16,a,j,b,0,0.809
8004,II,1,17,b,d,a,0,1.67
8004,II,1,18,b,j,b,1,0.35200000000000004
8004,II,1,19,a,j,b,0,0.872
8004,II,1,20,b,d,a,0,0.907
8004,II,1,21,b,j,b,1,1.138
8004,II,1,22,b,j,b,1,0.747
8004,II,1,23,b,j,b,1,0.537
8004,II,1,24,b,j,b,1,0.499
8004,II,1,25,b,j,b,1,0.46
8004,II,1,26,b,j,b,1,1.1520000000000001
8004,II,1,27,b,d,a,0,0.742
8004,II,1,28,b,j,b,1,0.5489999999999999
8004,II,1,29,a,j,b,0,0.508
8004,II,1,30,a,j,b,0,0.405
8004,II,1,31,b,d,a,0,0.6829999999999999
8004,II,1,32,b,j,b,1,0.40399999999999997
8004,II,1,33,b,j,b,1,0.626
8004,II,1,34,b,j,b,1,1.311
8004,II,1,35,b,j,b,1,0.639
8004,II,1,36,b,j,b,1,0.562
8004,II,1,37,a,d,a,1,0.778
8004,II,1,38,a,j,b,0,0.759
8004,II,1,39,a,j,b,0,1.294
8004,II,1,40,a,d,a,1,3.199
8004,II,1,41,b,j,b,1,1.284
8004,II,1,42,a,j,b,0,0.853
8004,II,1,43,b,d,a,0,0.777
8004,II,1,44,a,j,b,0,0.46299999999999997
8004,II,1,45,a,d,a,1,0.593
8004,II,1,46,a,None,None,0,9999.0
8004,II,1,47,a,d,a,1,0.0
8004,II,1,48,a,j,b,0,0.6809999999999999
8004,II,1,49,b,d,a,0,0.324
8004,II,1,50,b,j,b,1,0.244
8004,II,1,51,b,j,b,1,0.447
8004,II,1,52,b,j,b,1,0.48200000000000004
8004,II,1,53,a,j,b,0,0.757
8004,II,1,54,a,d,a,1,0.795
8004,II,1,55,a,d,a,1,0.608
8004,II,1,56,b,j,b,1,0.365
8004,II,1,57,b,j,b,1,0.324
8004,II,1,58,a,j,b,0,0.451
8004,II,1,59,a,d,a,1,0.376
8004,II,1,60,a,d,a,1,1.3659999999999999
8004,II,1,61,b,j,b,1,0.892
8004,II,1,62,a,j,b,0,0.381
8004,II,1,63,a,d,a,1,0.605
8004,II,1,64,a,d,a,1,0.696
8004,II,1,65,b,j,b,1,0.778
8004,II,1,66,a,j,b,0,0.642
8004,II,1,67,a,d,a,1,0.716
8004,II,1,68,a,d,a,1,0.5720000000000001
8004,II,1,69,b,j,b,1,0.33799999999999997
8004,II,1,70,a,d,a,1,0.659
8004,II,1,71,a,d,a,1,1.205
8004,II,1,72,a,d,a,1,0.418
8004,II,1,73,b,j,b,1,0.375
8004,II,1,74,b,d,a,0,1.182
8004,II,1,75,a,j,b,0,1.435
8004,II,1,76,a,d,a,1,0.767
8004,II,1,77,b,d,a,0,0.462
8004,II,1,78,b,j,b,1,0.568
8004,II,1,79,b,d,a,0,0.272
8004,II,1,80,a,j,b,0,0.731
8128,II,1,1,a,d,a,1,4.854
8128,II,1,2,b,j,b,1,1.249
8128,II,1,3,b,d,a,0,1.357
8128,II,1,4,a,j,b,0,1.067
8128,II,1,5,b,d,a,0,1.126
8128,II,1,6,b,d,a,0,1.781
8128,II,1,7,a,j,b,0,1.531
8128,II,1,8,a,d,a,1,4.4110000000000005
8128,II,1,9,a,j,b,0,1.734
8128,II,1,10,b,None,None,0,9999.0
8128,II,1,11,b,d,a,0,0.0
8128,II,1,12,b,j,b,1,1.095
8128,II,1,13,b,j,b,1,1.232
8128,II,1,14,b,j,b,1,0.9079999999999999
8128,II,1,15,a,j,b,0,0.9890000000000001
8128,II,1,16,b,d,a,0,1.2
8128,II,1,17,a,j,b,0,2.1430000000000002
8128,II,1,18,a,d,a,1,0.91
8128,II,1,19,a,j,b,0,1.159
8128,II,1,20,b,j,b,1,2.3169999999999997
8128,II,1,21,b,j,b,1,0.718
8128,II,1,22,b,j,b,1,0.541
8128,II,1,23,a,j,b,0,0.718
8128,II,1,24,a,d,a,1,1.463
8128,II,1,25,b,j,b,1,0.7929999999999999
8128,II,1,26,b,j,b,1,1.078
8128,II,1,27,a,j,b,0,0.703
8128,II,1,28,a,d,a,1,1.962
8128,II,1,29,b,j,b,1,0.631
8128,II,1,30,b,d,a,0,0.747
8128,II,1,31,b,j,b,1,0.915
8128,II,1,32,b,d,a,0,1.331
8128,II,1,33,b,d,a,0,0.715
8128,II,1,34,a,d,a,1,1.892
8128,II,1,35,a,d,a,1,1.9169999999999998
8128,II,1,36,a,j,b,0,1.444
8128,II,1,37,b,j,b,1,1.008
8128,II,1,38,a,j,b,0,1.4280000000000002
8128,II,1,39,b,j,b,1,2.488
8128,II,1,40,a,d,a,1,0.721
8128,II,1,41,a,d,a,1,2.065
8128,II,1,42,b,d,a,0,0.8590000000000001
8128,II,1,43,b,j,b,1,2.6060000000000003
8128,II,1,44,b,j,b,1,1.307
8128,II,1,45,a,d,a,1,3.571
8128,II,1,46,b,d,a,0,2.009
8128,II,1,47,b,j,b,1,1.3090000000000002
8128,II,1,48,a,j,b,0,1.286
8128,II,1,49,a,d,a,1,2.406
8128,II,1,50,a,j,b,0,1.714
8128,II,1,51,a,d,a,1,2.108
8128,II,1,52,b,j,b,1,0.627
8128,II,1,53,a,d,a,1,0.535
8128,II,1,54,b,j,b,1,0.64
8128,II,1,55,a,d,a,1,0.9790000000000001
8128,II,1,56,b,j,b,1,1.849
8128,II,1,57,b,j,b,1,1.1640000000000001
8128,II,1,58,a,d,a,1,1.114
8128,II,1,59,b,d,a,0,1.354
8128,II,1,60,a,j,b,0,3.0810000000000004
8128,II,1,61,a,d,a,1,0.731
8128,II,1,62,b,d,a,0,1.3230000000000002
8128,II,1,63,a,j,b,0,1.058
8128,II,1,64,b,j,b,1,2.508
8128,II,1,65,a,j,b,0,2.34
8128,II,1,66,b,d,a,0,1.203
8128,II,1,67,a,d,a,1,2.113
8128,II,1,68,b,d,a,0,0.96
8128,II,1,69,a,j,b,0,2.52
8128,II,1,70,a,j,b,0,4.407
8128,II,1,71,a,d,a,1,1.348
8128,II,1,72,b,d,a,0,0.77
8128,II,1,73,b,j,b,1,3.008
8128,II,1,74,b,d,a,0,2.964
8128,II,1,75,a,j,b,0,1.466
8128,II,1,76,a,d,a,1,1.188
8128,II,1,77,a,j,b,0,2.6180000000000003
8128,II,1,78,a,j,b,0,1.35
8128,II,1,79,a,j,b,0,1.476
8128,II,1,80,b,j,b,1,1.6230000000000002
8049,II,1,1,b,d,a,0,1.975
8049,II,1,2,a,d,a,1,1.851
8049,II,1,3,b,j,b,1,0.551
8049,II,1,4,b,j,b,1,0.528
8049,II,1,5,a,j,b,0,0.46299999999999997
8049,II,1,6,b,j,b,1,0.7929999999999999
8049,II,1,7,a,d,a,1,0.5920000000000001
8049,II,1,8,b,j,b,1,0.6679999999999999
8049,II,1,9,a,j,b,0,0.679
8049,II,1,10,b,j,b,1,0.626
8049,II,1,11,b,j,b,1,0.773
8049,II,1,12,b,d,a,0,0.8190000000000001
8049,II,1,13,b,d,a,0,0.5670000000000001
8049,II,1,14,a,j,b,0,0.589
8049,II,1,15,a,d,a,1,0.6990000000000001
8049,II,1,16,b,j,b,1,0.836
8049,II,1,17,a,d,a,1,1.401
8049,II,1,18,a,j,b,0,0.6940000000000001
8049,II,1,19,b,d,a,0,0.8
8049,II,1,20,b,d,a,0,0.7959999999999999
8049,II,1,21,b,d,a,0,1.345
8049,II,1,22,b,j,b,1,0.753
8049,II,1,23,a,d,a,1,0.545
8049,II,1,24,a,d,a,1,0.551
8049,II,1,25,a,j,b,0,0.775
8049,II,1,26,a,j,b,0,0.733
8049,II,1,27,b,d,a,0,0.7490000000000001
8049,II,1,28,b,j,b,1,0.373
8049,II,1,29,b,j,b,1,1.403
8049,II,1,30,a,j,b,0,0.752
8049,II,1,31,a,d,a,1,0.5760000000000001
8049,II,1,32,b,d,a,0,0.573
8049,II,1,33,b,j,b,1,0.7879999999999999
8049,II,1,34,a,j,b,0,1.5130000000000001
8049,II,1,35,a,d,a,1,0.6579999999999999
8049,II,1,36,b,d,a,0,0.764
8049,II,1,37,b,j,b,1,0.7390000000000001
8049,II,1,38,a,j,b,0,0.9390000000000001
8049,II,1,39,a,j,b,0,0.867
8049,II,1,40,b,d,a,0,0.9009999999999999
8049,II,1,41,a,d,a,1,0.742
8049,II,1,42,b,d,a,0,0.823
8049,II,1,43,a,d,a,1,0.595
8049,II,1,44,a,d,a,1,1.153
8049,II,1,45,a,d,a,1,0.823
8049,II,1,46,a,d,a,1,0.804
8049,II,1,47,a,d,a,1,0.77
8049,II,1,48,b,d,a,0,1.288
8049,II,1,49,a,j,b,0,0.9620000000000001
8049,II,1,50,a,d,a,1,0.9209999999999999
8049,II,1,51,a,d,a,1,0.6729999999999999
8049,II,1,52,a,d,a,1,0.708
8049,II,1,53,a,d,a,1,0.6990000000000001
8049,II,1,54,b,d,a,0,0.733
8049,II,1,55,a,j,b,0,0.774
8049,II,1,56,b,d,a,0,0.7709999999999999
8049,II,1,57,b,d,a,0,0.561
8049,II,1,58,b,d,a,0,0.609
8049,II,1,59,b,j,b,1,0.606
8049,II,1,60,a,d,a,1,0.86
8049,II,1,61,a,j,b,0,0.622
8049,II,1,62,b,d,a,0,0.513
8049,II,1,63,b,d,a,0,0.867
8049,II,1,64,b,j,b,1,0.982
8049,II,1,65,a,j,b,0,0.515
8049,II,1,66,a,d,a,1,0.917
8049,II,1,67,a,j,b,0,0.836
8049,II,1,68,b,d,a,0,0.585
8049,II,1,69,b,j,b,1,0.375
8049,II,1,70,b,j,b,1,0.5429999999999999
8049,II,1,71,b,j,b,1,0.852
8049,II,1,72,b,j,b,1,0.7040000000000001
8049,II,1,73,b,j,b,1,0.745
8049,II,1,74,a,j,b,0,0.72
8049,II,1,75,a,j,b,0,0.73
8049,II,1,76,a,j,b,0,0.8009999999999999
8049,II,1,77,a,d,a,1,0.919
8049,II,1,78,a,d,a,1,0.648
8049,II,1,79,b,d,a,0,0.45799999999999996
8049,II,1,80,b,j,b,1,1.15
8054,RB,2,1,a,d,a,1,0.9390000000000001
8054,RB,2,2,a,d,a,1,0.706
8054,RB,2,3,b,j,b,1,0.884
8054,RB,2,4,b,j,b,1,0.462
8054,RB,2,5,a,d,a,1,0.496
8054,RB,2,6,b,j,b,1,0.433
8054,RB,2,7,a,d,a,1,0.614
8054,RB,2,8,a,d,a,1,0.48200000000000004
8054,RB,2,9,a,d,a,1,0.493
8054,RB,2,10,b,j,b,1,0.526
8054,RB,2,11,b,j,b,1,0.557
8054,RB,2,12,a,d,a,1,1.037
8054,RB,2,13,a,d,a,1,0.465
8054,RB,2,14,b,j,b,1,0.475
8054,RB,2,15,a,d,a,1,0.534
8054,RB,2,16,b,j,b,1,0.42100000000000004
8054,RB,2,17,a,d,a,1,0.48200000000000004
8054,RB,2,18,b,j,b,1,0.38
8054,RB,2,19,a,d,a,1,1.146
8054,RB,2,20,a,d,a,1,0.73
8054,RB,2,21,a,d,a,1,0.627
8054,RB,2,22,a,j,b,0,0.7120000000000001
8054,RB,2,23,b,j,b,1,0.552
8054,RB,2,24,b,j,b,1,0.5670000000000001
8054,RB,2,25,a,d,a,1,0.55
8054,RB,2,26,a,d,a,1,0.46799999999999997
8054,RB,2,27,a,d,a,1,0.64
8054,RB,2,28,a,d,a,1,0.44299999999999995
8054,RB,2,29,b,j,b,1,0.414
8054,RB,2,30,a,j,b,0,0.38
8054,RB,2,31,a,d,a,1,0.57
8054,RB,2,32,b,j,b,1,0.552
8054,RB,2,33,a,d,a,1,0.5670000000000001
8054,RB,2,34,b,j,b,1,0.59
8054,RB,2,35,b,j,b,1,0.564
8054,RB,2,36,b,j,b,1,0.45
8054,RB,2,37,a,d,a,1,0.5820000000000001
8054,RB,2,38,a,d,a,1,0.46
8054,RB,2,39,a,d,a,1,0.42200000000000004
8054,RB,2,40,a,d,a,1,0.5
8054,RB,2,41,b,j,b,1,0.573
8054,RB,2,42,a,d,a,1,0.586
8054,RB,2,43,a,d,a,1,0.568
8054,RB,2,44,b,j,b,1,0.575
8054,RB,2,45,b,j,b,1,0.485
8054,RB,2,46,b,j,b,1,0.46399999999999997
8054,RB,2,47,b,j,b,1,0.451
8054,RB,2,48,b,j,b,1,0.527
8054,RB,2,49,a,d,a,1,0.758
8054,RB,2,50,a,d,a,1,0.597
8054,RB,2,51,b,j,b,1,0.475
8054,RB,2,52,a,d,a,1,0.469
8054,RB,2,53,b,j,b,1,0.39899999999999997
8054,RB,2,54,a,d,a,1,0.86
8054,RB,2,55,b,j,b,1,0.5920000000000001
8054,RB,2,56,b,j,b,1,0.821
8054,RB,2,57,b,j,b,1,0.442
8054,RB,2,58,b,j,b,1,0.493
8054,RB,2,59,a,d,a,1,0.654
8054,RB,2,60,b,j,b,1,0.635
8054,RB,2,61,b,j,b,1,0.517
8054,RB,2,62,b,j,b,1,0.615
8054,RB,2,63,b,j,b,1,1.38
8054,RB,2,64,b,j,b,1,0.569
8054,RB,2,65,a,d,a,1,0.568
8054,RB,2,66,a,d,a,1,0.583
8054,RB,2,67,b,j,b,1,0.5489999999999999
8054,RB,2,68,b,j,b,1,0.444
8054,RB,2,69,a,d,a,1,0.569
8054,RB,2,70,a,d,a,1,0.447
8054,RB,2,71,b,d,a,0,0.483
8054,RB,2,72,a,j,b,0,0.462
8054,RB,2,73,a,j,b,0,1.719
8054,RB,2,74,b,j,b,1,0.368
8054,RB,2,75,a,d,a,1,0.8370000000000001
8054,RB,2,76,b,j,b,1,0.506
8054,RB,2,77,b,j,b,1,0.5479999999999999
8054,RB,2,78,b,j,b,1,0.49
8054,RB,2,79,a,d,a,1,0.604
8054,RB,2,80,b,j,b,1,0.49
8079,RB,1,1,b,d,a,0,0.867
8079,RB,1,2,a,j,b,0,0.272
8079,RB,1,3,b,d,a,0,0.33
8079,RB,1,4,a,j,b,0,0.203
8079,RB,1,5,a,j,b,0,0.287
8079,RB,1,6,a,d,a,1,0.418
8079,RB,1,7,b,j,b,1,0.447
8079,RB,1,8,a,j,b,0,0.36200000000000004
8079,RB,1,9,a,d,a,1,0.297
8079,RB,1,10,a,j,b,0,0.28300000000000003
8079,RB,1,11,a,d,a,1,0.22899999999999998
8079,RB,1,12,b,d,a,0,0.7759999999999999
8079,RB,1,13,a,j,b,0,0.391
8079,RB,1,14,a,d,a,1,0.43700000000000006
8079,RB,1,15,a,j,b,0,0.22399999999999998
8079,RB,1,16,b,d,a,0,0.0
8079,RB,1,17,b,j,b,1,0.643
8079,RB,1,18,b,j,b,1,1.095
8079,RB,1,19,b,j,b,1,0.43200000000000005
8079,RB,1,20,b,j,b,1,0.33899999999999997
8079,RB,1,21,b,j,b,1,0.387
8079,RB,1,22,b,j,b,1,1.264
8079,RB,1,23,b,j,b,1,0.364
8079,RB,1,24,a,j,b,0,0.386
8079,RB,1,25,b,j,b,1,0.304
8079,RB,1,26,b,j,b,1,0.506
8079,RB,1,27,b,j,b,1,0.371
8079,RB,1,28,a,j,b,0,0.401
8079,RB,1,29,b,j,b,1,0.271
8079,RB,1,30,a,j,b,0,0.282
8079,RB,1,31,b,d,a,0,0.341
8079,RB,1,32,b,j,b,1,0.25
8079,RB,1,33,a,j,b,0,0.39899999999999997
8079,RB,1,34,b,j,b,1,0.5489999999999999
8079,RB,1,35,a,j,b,0,1.315
8079,RB,1,36,b,j,b,1,0.532
8079,RB,1,37,b,j,b,1,0.6609999999999999
8079,RB,1,38,a,d,a,1,0.831
8079,RB,1,39,a,d,a,1,0.675
8079,RB,1,40,b,j,b,1,0.414
8079,RB,1,41,b,j,b,1,0.353
8079,RB,1,42,a,j,b,0,0.754
8079,RB,1,43,a,d,a,1,0.32899999999999996
8079,RB,1,44,a,j,b,0,0.7120000000000001
8079,RB,1,45,a,d,a,1,0.266
8079,RB,1,46,a,j,b,0,0.292
8079,RB,1,47,b,d,a,0,0.253
8079,RB,1,48,a,d,a,1,0.345
8079,RB,1,49,a,d,a,1,1.825
8079,RB,1,50,a,j,b,0,0.428
8079,RB,1,51,a,d,a,1,0.32799999999999996
8079,RB,1,52,b,j,b,1,0.201
8079,RB,1,53,b,d,a,0,0.17600000000000002
8079,RB,1,54,b,j,b,1,0.06
8079,RB,1,55,b,d,a,0,0.159
8079,RB,1,56,b,j,b,1,0.23199999999999998
8079,RB,1,57,a,j,b,0,0.077
8079,RB,1,58,a,j,b,0,0.292
8079,RB,1,59,a,j,b,0,0.20800000000000002
8079,RB,1,60,a,d,a,1,0.06
8079,RB,1,61,a,j,b,0,0.055
8079,RB,1,62,a,d,a,1,0.266
8079,RB,1,63,b,j,b,1,0.149
8079,RB,1,64,b,d,a,0,0.157
8079,RB,1,65,a,j,b,0,0.06
8079,RB,1,66,b,j,b,1,0.253
8079,RB,1,67,a,d,a,1,0.091
8079,RB,1,68,b,j,b,1,0.005
8079,RB,1,69,b,d,a,0,0.217
8079,RB,1,70,b,d,a,0,0.302
8079,RB,1,71,a,j,b,0,0.0
8079,RB,1,72,a,j,b,0,0.0
8079,RB,1,73,a,j,b,0,0.46799999999999997
8079,RB,1,74,a,d,a,1,0.237
8079,RB,1,75,b,j,b,1,0.16899999999999998
8079,RB,1,76,b,d,a,0,0.13699999999999998
8079,RB,1,77,b,j,b,1,0.0
8079,RB,1,78,b,j,b,1,0.46399999999999997
8079,RB,1,79,a,j,b,0,0.409
8079,RB,1,80,b,d,a,0,0.335
8108,II,1,1,a,d,a,1,3.51
8108,II,1,2,a,j,b,0,1.31
8108,II,1,3,b,d,a,0,1.047
8108,II,1,4,a,j,b,0,1.162
8108,II,1,5,a,d,a,1,2.184
8108,II,1,6,a,d,a,1,2.6689999999999996
8108,II,1,7,b,d,a,0,0.775
8108,II,1,8,b,d,a,0,1.4140000000000001
8108,II,1,9,b,j,b,1,0.419
8108,II,1,10,a,j,b,0,0.7979999999999999
8108,II,1,11,b,None,None,0,9999.0
8108,II,1,12,b,d,a,0,0.0
8108,II,1,13,a,j,b,0,0.87
8108,II,1,14,a,d,a,1,0.8
8108,II,1,15,a,d,a,1,0.63
8108,II,1,16,a,j,b,0,0.825
8108,II,1,17,a,d,a,1,0.6859999999999999
8108,II,1,18,a,j,b,0,1.089
8108,II,1,19,a,d,a,1,0.513
8108,II,1,20,b,d,a,0,1.202
8108,II,1,21,a,j,b,0,1.0390000000000001
8108,II,1,22,b,j,b,1,0.843
8108,II,1,23,a,d,a,1,0.502
8108,II,1,24,a,j,b,0,0.43
8108,II,1,25,a,d,a,1,0.818
8108,II,1,26,a,d,a,1,0.505
8108,II,1,27,b,d,a,0,0.47200000000000003
8108,II,1,28,b,j,b,1,0.755
8108,II,1,29,b,d,a,0,0.9690000000000001
8108,II,1,30,a,j,b,0,0.9520000000000001
8108,II,1,31,b,d,a,0,0.672
8108,II,1,32,a,d,a,1,0.6990000000000001
8108,II,1,33,b,j,b,1,0.44299999999999995
8108,II,1,34,b,d,a,0,0.823
8108,II,1,35,a,j,b,0,0.9640000000000001
8108,II,1,36,a,d,a,1,0.818
8108,II,1,37,b,d,a,0,0.695
8108,II,1,38,b,d,a,0,0.664
8108,II,1,39,b,j,b,1,0.44299999999999995
8108,II,1,40,b,j,b,1,0.455
8108,II,1,41,a,j,b,0,0.578
8108,II,1,42,a,d,a,1,0.831
8108,II,1,43,b,d,a,0,0.812
8108,II,1,44,b,j,b,1,0.64
8108,II,1,45,a,d,a,1,1.4269999999999998
8108,II,1,46,a,j,b,0,0.56
8108,II,1,47,b,d,a,0,0.565
8108,II,1,48,a,j,b,0,0.701
8108,II,1,49,b,d,a,0,0.615
8108,II,1,50,b,d,a,0,0.387
8108,II,1,51,b,j,b,1,0.345
8108,II,1,52,b,d,a,0,0.929
8108,II,1,53,b,d,a,0,0.583
8108,II,1,54,a,j,b,0,0.39799999999999996
8108,II,1,55,a,d,a,1,0.41200000000000003
8108,II,1,56,a,j,b,0,0.672
8108,II,1,57,a,d,a,1,0.45
8108,II,1,58,a,d,a,1,0.534
8108,II,1,59,a,d,a,1,0.478
8108,II,1,60,b,d,a,0,0.521
8108,II,1,61,b,d,a,0,0.45
8108,II,1,62,b,j,b,1,0.33299999999999996
8108,II,1,63,b,j,b,1,0.525
8108,II,1,64,b,d,a,0,0.565
8108,II,1,65,b,j,b,1,0.34
8108,II,1,66,b,d,a,0,0.65
8108,II,1,67,a,j,b,0,0.622
8108,II,1,68,b,j,b,1,0.33899999999999997
8108,II,1,69,a,d,a,1,0.6409999999999999
8108,II,1,70,b,j,b,1,0.885
8108,II,1,71,a,d,a,1,0.728
8108,II,1,72,b,j,b,1,0.382
8108,II,1,73,b,j,b,1,1.5730000000000002
8108,II,1,74,a,d,a,1,0.531
8108,II,1,75,a,j,b,0,0.8109999999999999
8108,II,1,76,a,j,b,0,0.7120000000000001
8108,II,1,77,b,d,a,0,0.384
8108,II,1,78,a,j,b,0,1.311
8108,II,1,79,b,d,a,0,0.672
8108,II,1,80,b,j,b,1,0.792
8099,II,2,1,b,d,a,0,0.9890000000000001
8099,II,2,2,a,j,b,0,0.344
8099,II,2,3,b,j,b,1,0.753
8099,II,2,4,b,d,a,0,0.49700000000000005
8099,II,2,5,b,j,b,1,1.682
8099,II,2,6,b,j,b,1,1.3880000000000001
8099,II,2,7,b,j,b,1,0.88
8099,II,2,8,a,d,a,1,2.9560000000000004
8099,II,2,9,b,j,b,1,1.266
8099,II,2,10,b,j,b,1,0.733
8099,II,2,11,a,d,a,1,2.075
8099,II,2,12,a,d,a,1,2.7739999999999996
8099,II,2,13,a,j,b,0,1.963
8099,II,2,14,a,d,a,1,1.889
8099,II,2,15,b,d,a,0,1.107
8099,II,2,16,a,d,a,1,0.971
8099,II,2,17,b,j,b,1,1.874
8099,II,2,18,a,j,b,0,0.779
8099,II,2,19,a,d,a,1,1.2329999999999999
8099,II,2,20,a,d,a,1,1.308
8099,II,2,21,b,j,b,1,0.934
8099,II,2,22,a,d,a,1,2.03
8099,II,2,23,b,j,b,1,1.281
8099,II,2,24,a,d,a,1,1.068
8099,II,2,25,a,j,b,0,1.3019999999999998
8099,II,2,26,a,d,a,1,0.8320000000000001
8099,II,2,27,a,d,a,1,1.161
8099,II,2,28,b,j,b,1,1.1059999999999999
8099,II,2,29,a,d,a,1,0.978
8099,II,2,30,b,j,b,1,0.752
8099,II,2,31,b,d,a,0,0.848
8099,II,2,32,b,d,a,0,2.915
8099,II,2,33,b,d,a,0,1.594
8099,II,2,34,a,d,a,1,1.2790000000000001
8099,II,2,35,a,j,b,0,0.601
8099,II,2,36,a,j,b,0,0.743
8099,II,2,37,a,d,a,1,1.455
8099,II,2,38,b,d,a,0,1.17
8099,II,2,39,b,d,a,0,1.681
8099,II,2,40,a,j,b,0,2.6889999999999996
8099,II,2,41,a,j,b,0,0.37799999999999995
8099,II,2,42,b,d,a,0,0.521
8099,II,2,43,b,j,b,1,0.738
8099,II,2,44,b,j,b,1,0.89
8099,II,2,45,b,j,b,1,0.418
8099,II,2,46,a,j,b,0,0.688
8099,II,2,47,a,j,b,0,0.802
8099,II,2,48,b,d,a,0,0.415
8099,II,2,49,a,j,b,0,0.452
8099,II,2,50,a,j,b,0,1.103
8099,II,2,51,b,d,a,0,0.504
8099,II,2,52,b,j,b,1,0.45
8099,II,2,53,b,j,b,1,1.1340000000000001
8099,II,2,54,a,d,a,1,0.701
8099,II,2,55,a,j,b,0,0.623
8099,II,2,56,a,j,b,0,0.937
8099,II,2,57,b,d,a,0,0.738
8099,II,2,58,b,j,b,1,0.37
8099,II,2,59,a,j,b,0,1.087
8099,II,2,60,a,d,a,1,0.45799999999999996
8099,II,2,61,a,j,b,0,0.782
8099,II,2,62,a,d,a,1,1.4580000000000002
8099,II,2,63,b,j,b,1,0.5670000000000001
8099,II,2,64,b,d,a,0,0.508
8099,II,2,65,a,j,b,0,0.35700000000000004
8099,II,2,66,b,d,a,0,0.365
8099,II,2,67,b,d,a,0,1.1079999999999999
8099,II,2,68,b,j,b,1,0.37200000000000005
8099,II,2,69,b,d,a,0,0.995
8099,II,2,70,b,j,b,1,1.047
8099,II,2,71,a,j,b,0,0.867
8099,II,2,72,a,d,a,1,0.5660000000000001
8099,II,2,73,b,d,a,0,1.036
8099,II,2,74,a,j,b,0,0.616
8099,II,2,75,a,d,a,1,0.8370000000000001
8099,II,2,76,a,j,b,0,0.929
8099,II,2,77,b,d,a,0,0.257
8099,II,2,78,b,j,b,1,0.596
8099,II,2,79,b,j,b,1,0.8079999999999999
8099,II,2,80,a,d,a,1,0.494
8114,RB,2,1,b,d,a,0,2.662
8114,RB,2,2,b,j,b,1,0.825
8114,RB,2,3,b,j,b,1,0.614
8114,RB,2,4,b,j,b,1,0.618
8114,RB,2,5,a,d,a,1,0.55
8114,RB,2,6,b,j,b,1,0.6859999999999999
8114,RB,2,7,b,j,b,1,0.575
8114,RB,2,8,a,d,a,1,0.727
8114,RB,2,9,a,d,a,1,0.7909999999999999
8114,RB,2,10,a,d,a,1,0.596
8114,RB,2,11,a,d,a,1,0.769
8114,RB,2,12,a,d,a,1,0.9279999999999999
8114,RB,2,13,b,j,b,1,0.5920000000000001
8114,RB,2,14,b,j,b,1,1.125
8114,RB,2,15,b,j,b,1,0.588
8114,RB,2,16,a,j,b,0,1.115
8114,RB,2,17,a,d,a,1,0.604
8114,RB,2,18,b,j,b,1,0.536
8114,RB,2,19,b,j,b,1,0.649
8114,RB,2,20,b,j,b,1,1.413
8114,RB,2,21,a,d,a,1,0.873
8114,RB,2,22,a,d,a,1,0.483
8114,RB,2,23,a,d,a,1,0.87
8114,RB,2,24,a,d,a,1,0.607
8114,RB,2,25,a,d,a,1,0.917
8114,RB,2,26,b,j,b,1,0.54
8114,RB,2,27,b,j,b,1,0.516
8114,RB,2,28,a,d,a,1,0.7090000000000001
8114,RB,2,29,a,d,a,1,2.133
8114,RB,2,30,b,j,b,1,0.6609999999999999
8114,RB,2,31,a,d,a,1,1.567
8114,RB,2,32,a,d,a,1,0.727
8114,RB,2,33,a,d,a,1,1.0390000000000001
8114,RB,2,34,b,j,b,1,0.682
8114,RB,2,35,b,j,b,1,0.669
8114,RB,2,36,b,j,b,1,0.662
8114,RB,2,37,b,j,b,1,0.561
8114,RB,2,38,a,j,b,0,1.2890000000000001
8114,RB,2,39,a,d,a,1,0.65
8114,RB,2,40,b,j,b,1,0.7020000000000001
8114,RB,2,41,a,d,a,1,1.216
8114,RB,2,42,a,d,a,1,0.6509999999999999
8114,RB,2,43,a,d,a,1,0.647
8114,RB,2,44,b,j,b,1,0.738
8114,RB,2,45,b,j,b,1,0.603
8114,RB,2,46,b,j,b,1,0.584
8114,RB,2,47,b,j,b,1,0.7979999999999999
8114,RB,2,48,a,d,a,1,2.123
8114,RB,2,49,b,j,b,1,1.05
8114,RB,2,50,a,d,a,1,1.79
8114,RB,2,51,b,j,b,1,0.483
8114,RB,2,52,b,j,b,1,0.637
8114,RB,2,53,b,j,b,1,1.001
8114,RB,2,54,a,d,a,1,0.606
8114,RB,2,55,b,j,b,1,0.627
8114,RB,2,56,b,j,b,1,0.647
8114,RB,2,57,a,d,a,1,0.769
8114,RB,2,58,b,j,b,1,0.73
8114,RB,2,59,a,d,a,1,0.857
8114,RB,2,60,a,j,b,0,0.8909999999999999
8114,RB,2,61,b,j,b,1,0.605
8114,RB,2,62,b,j,b,1,0.65
8114,RB,2,63,b,j,b,1,0.622
8114,RB,2,64,a,d,a,1,0.715
8114,RB,2,65,b,j,b,1,0.531
8114,RB,2,66,b,j,b,1,0.5710000000000001
8114,RB,2,67,b,j,b,1,0.5379999999999999
8114,RB,2,68,b,j,b,1,0.659
8114,RB,2,69,b,j,b,1,0.461
8114,RB,2,70,a,d,a,1,0.56
8114,RB,2,71,a,d,a,1,0.623
8114,RB,2,72,a,d,a,1,0.45799999999999996
8114,RB,2,73,a,d,a,1,0.589
8114,RB,2,74,a,d,a,1,2.523
8114,RB,2,75,a,d,a,1,0.491
8114,RB,2,76,a,d,a,1,0.813
8114,RB,2,77,a,d,a,1,0.601
8114,RB,2,78,a,d,a,1,0.5820000000000001
8114,RB,2,79,a,d,a,1,1.045
8114,RB,2,80,b,j,b,1,0.47100000000000003
8017,II,1,1,b,None,None,0,9999.0
8017,II,1,2,b,d,a,0,1.601
8017,II,1,3,a,j,b,0,0.183
8017,II,1,4,b,None,None,0,9999.0
8017,II,1,5,a,None,None,0,9999.0
8017,II,1,6,b,j,b,1,1.605
8017,II,1,7,b,j,b,1,0.883
8017,II,1,8,a,j,b,0,0.436
8017,II,1,9,a,d,a,1,0.39299999999999996
8017,II,1,10,a,j,b,0,0.767
8017,II,1,11,a,d,a,1,0.7559999999999999
8017,II,1,12,a,None,None,0,9999.0
8017,II,1,13,a,None,None,0,9999.0
8017,II,1,14,a,j,b,0,1.8769999999999998
8017,II,1,15,b,d,a,0,0.0
8017,II,1,16,b,d,a,0,1.308
8017,II,1,17,b,d,a,0,0.868
8017,II,1,18,b,j,b,1,0.423
8017,II,1,19,a,j,b,0,2.363
8017,II,1,20,b,d,a,0,1.4809999999999999
8017,II,1,21,b,d,a,0,0.8190000000000001
8017,II,1,22,a,d,a,1,1.112
8017,II,1,23,b,j,b,1,1.072
8017,II,1,24,a,d,a,1,1.994
8017,II,1,25,b,j,b,1,0.84
8017,II,1,26,a,d,a,1,0.371
8017,II,1,27,a,j,b,0,0.674
8017,II,1,28,a,d,a,1,1.364
8017,II,1,29,a,j,b,0,1.514
8017,II,1,30,a,d,a,1,0.963
8017,II,1,31,a,j,b,0,0.937
8017,II,1,32,b,j,b,1,1.074
8017,II,1,33,a,d,a,1,0.595
8017,II,1,34,a,j,b,0,2.4330000000000003
8017,II,1,35,a,d,a,1,0.579
8017,II,1,36,b,d,a,0,0.514
8017,II,1,37,a,j,b,0,4.035
8017,II,1,38,a,d,a,1,2.3169999999999997
8017,II,1,39,a,d,a,1,1.462
8017,II,1,40,b,d,a,0,0.649
8017,II,1,41,a,j,b,0,1.227
8017,II,1,42,b,d,a,0,0.64
8017,II,1,43,a,d,a,1,4.937
8017,II,1,44,b,d,a,0,0.825
8017,II,1,45,b,j,b,1,0.8290000000000001
8017,II,1,46,a,j,b,0,4.296
8017,II,1,47,b,d,a,0,0.9690000000000001
8017,II,1,48,b,j,b,1,0.728
8017,II,1,49,a,d,a,1,0.424
8017,II,1,50,b,j,b,1,0.315
8017,II,1,51,b,d,a,0,0.381
8017,II,1,52,a,j,b,0,0.371
8017,II,1,53,b,j,b,1,1.0170000000000001
8017,II,1,54,b,d,a,0,0.278
8017,II,1,55,b,d,a,0,1.2890000000000001
8017,II,1,56,b,j,b,1,0.377
8017,II,1,57,a,j,b,0,1.496
8017,II,1,58,b,j,b,1,1.609
8017,II,1,59,b,j,b,1,0.741
8017,II,1,60,a,j,b,0,2.013
8017,II,1,61,b,d,a,0,0.44799999999999995
8017,II,1,62,a,d,a,1,4.205
8017,II,1,63,b,j,b,1,0.672
8017,II,1,64,b,j,b,1,0.617
8017,II,1,65,a,j,b,0,0.655
8017,II,1,66,b,j,b,1,0.826
8017,II,1,67,b,d,a,0,0.861
8017,II,1,68,a,d,a,1,0.7759999999999999
8017,II,1,69,b,j,b,1,0.847
8017,II,1,70,b,j,b,1,1.41
8017,II,1,71,b,j,b,1,1.375
8017,II,1,72,a,j,b,0,0.43700000000000006
8017,II,1,73,b,j,b,1,1.9609999999999999
8017,II,1,74,a,j,b,0,0.718
8017,II,1,75,a,j,b,0,1.1440000000000001
8017,II,1,76,b,d,a,0,0.318
8017,II,1,77,a,j,b,0,3.536
8017,II,1,78,a,j,b,0,0.83
8017,II,1,79,a,d,a,1,0.9470000000000001
8017,II,1,80,b,d,a,0,0.297
8106,RB,1,1,b,j,b,1,1.9069999999999998
8106,RB,1,2,b,d,a,0,0.7070000000000001
8106,RB,1,3,a,j,b,0,1.005
8106,RB,1,4,a,d,a,1,1.0170000000000001
8106,RB,1,5,b,d,a,0,0.6859999999999999
8106,RB,1,6,b,j,b,1,1.16
8106,RB,1,7,a,j,b,0,0.83
8106,RB,1,8,b,j,b,1,0.45799999999999996
8106,RB,1,9,b,j,b,1,0.6709999999999999
8106,RB,1,10,b,d,a,0,0.7509999999999999
8106,RB,1,11,b,j,b,1,0.5429999999999999
8106,RB,1,12,a,d,a,1,0.9359999999999999
8106,RB,1,13,b,j,b,1,0.615
8106,RB,1,14,b,j,b,1,0.45899999999999996
8106,RB,1,15,a,d,a,1,1.3019999999999998
8106,RB,1,16,b,j,b,1,0.5670000000000001
8106,RB,1,17,b,j,b,1,0.542
8106,RB,1,18,a,d,a,1,0.725
8106,RB,1,19,a,d,a,1,0.5489999999999999
8106,RB,1,20,a,d,a,1,0.525
8106,RB,1,21,a,d,a,1,0.532
8106,RB,1,22,b,j,b,1,0.493
8106,RB,1,23,a,j,b,0,0.534
8106,RB,1,24,a,j,b,0,0.7040000000000001
8106,RB,1,25,b,d,a,0,0.384
8106,RB,1,26,a,d,a,1,0.84
8106,RB,1,27,b,d,a,0,0.907
8106,RB,1,28,b,j,b,1,0.547
8106,RB,1,29,b,j,b,1,0.747
8106,RB,1,30,a,d,a,1,1.0659999999999998
8106,RB,1,31,a,d,a,1,0.605
8106,RB,1,32,a,d,a,1,0.555
8106,RB,1,33,b,j,b,1,0.537
8106,RB,1,34,a,d,a,1,2.001
8106,RB,1,35,a,d,a,1,0.966
8106,RB,1,36,b,j,b,1,0.693
8106,RB,1,37,a,d,a,1,1.014
8106,RB,1,38,b,j,b,1,0.6829999999999999
8106,RB,1,39,a,d,a,1,0.8059999999999999
8106,RB,1,40,b,j,b,1,0.932
8106,RB,1,41,b,j,b,1,0.763
8106,RB,1,42,a,d,a,1,0.7609999999999999
8106,RB,1,43,b,j,b,1,0.623
8106,RB,1,44,a,d,a,1,0.636
8106,RB,1,45,b,j,b,1,0.647
8106,RB,1,46,a,d,a,1,0.7140000000000001
8106,RB,1,47,b,j,b,1,1.196
8106,RB,1,48,a,d,a,1,0.738
8106,RB,1,49,a,d,a,1,0.48
8106,RB,1,50,b,j,b,1,0.715
8106,RB,1,51,a,d,a,1,0.725
8106,RB,1,52,b,j,b,1,0.6679999999999999
8106,RB,1,53,b,j,b,1,0.607
8106,RB,1,54,b,j,b,1,0.8370000000000001
8106,RB,1,55,a,d,a,1,0.7909999999999999
8106,RB,1,56,a,j,b,0,0.693
8106,RB,1,57,b,j,b,1,0.43
8106,RB,1,58,b,j,b,1,0.634
8106,RB,1,59,a,d,a,1,0.614
8106,RB,1,60,b,j,b,1,0.595
8106,RB,1,61,a,j,b,0,0.49700000000000005
8106,RB,1,62,b,j,b,1,0.626
8106,RB,1,63,a,d,a,1,0.7020000000000001
8106,RB,1,64,a,d,a,1,0.5589999999999999
8106,RB,1,65,b,j,b,1,0.614
8106,RB,1,66,a,d,a,1,0.619
8106,RB,1,67,a,j,b,0,0.6709999999999999
8106,RB,1,68,b,j,b,1,0.611
8106,RB,1,69,b,j,b,1,0.639
8106,RB,1,70,a,d,a,1,0.723
8106,RB,1,71,a,d,a,1,0.763
8106,RB,1,72,b,j,b,1,0.7609999999999999
8106,RB,1,73,a,d,a,1,0.735
8106,RB,1,74,b,j,b,1,0.616
8106,RB,1,75,b,j,b,1,0.484
8106,RB,1,76,a,d,a,1,0.616
8106,RB,1,77,b,j,b,1,0.5720000000000001
8106,RB,1,78,a,d,a,1,0.682
8106,RB,1,79,a,d,a,1,0.652
8106,RB,1,80,a,d,a,1,0.52
8007,RB,2,1,a,j,b,0,1.218
8007,RB,2,2,b,j,b,1,0.7509999999999999
8007,RB,2,3,a,d,a,1,1.094
8007,RB,2,4,b,j,b,1,0.512
8007,RB,2,5,b,j,b,1,0.6729999999999999
8007,RB,2,6,a,d,a,1,0.473
8007,RB,2,7,a,d,a,1,0.5329999999999999
8007,RB,2,8,b,j,b,1,0.836
8007,RB,2,9,a,j,b,0,0.647
8007,RB,2,10,a,j,b,0,0.659
8007,RB,2,11,b,j,b,1,0.6629999999999999
8007,RB,2,12,b,j,b,1,0.728
8007,RB,2,13,a,j,b,0,0.5760000000000001
8007,RB,2,14,b,j,b,1,0.615
8007,RB,2,15,a,j,b,0,0.7
8007,RB,2,16,a,j,b,0,0.7509999999999999
8007,RB,2,17,b,j,b,1,0.43799999999999994
8007,RB,2,18,b,j,b,1,0.6809999999999999
8007,RB,2,19,b,j,b,1,0.419
8007,RB,2,20,a,j,b,0,0.657
8007,RB,2,21,a,j,b,0,0.36200000000000004
8007,RB,2,22,a,j,b,0,0.354
8007,RB,2,23,b,j,b,1,0.39399999999999996
8007,RB,2,24,a,d,a,1,0.9520000000000001
8007,RB,2,25,b,j,b,1,0.7509999999999999
8007,RB,2,26,a,j,b,0,0.741
8007,RB,2,27,b,j,b,1,0.555
8007,RB,2,28,a,j,b,0,0.8370000000000001
8007,RB,2,29,b,j,b,1,0.544
8007,RB,2,30,b,j,b,1,0.7829999999999999
8007,RB,2,31,b,j,b,1,0.47
8007,RB,2,32,a,j,b,0,0.44
8007,RB,2,33,a,j,b,0,0.611
8007,RB,2,34,a,d,a,1,0.433
8007,RB,2,35,a,d,a,1,0.5489999999999999
8007,RB,2,36,b,j,b,1,0.581
8007,RB,2,37,b,j,b,1,0.5379999999999999
8007,RB,2,38,b,j,b,1,0.45899999999999996
8007,RB,2,39,b,j,b,1,0.573
8007,RB,2,40,b,j,b,1,0.7240000000000001
8007,RB,2,41,a,d,a,1,0.907
8007,RB,2,42,a,j,b,0,0.66
8007,RB,2,43,a,d,a,1,0.7909999999999999
8007,RB,2,44,a,d,a,1,0.485
8007,RB,2,45,b,d,a,0,0.42100000000000004
8007,RB,2,46,b,j,b,1,0.539
8007,RB,2,47,a,d,a,1,0.603
8007,RB,2,48,a,j,b,0,0.32899999999999996
8007,RB,2,49,b,d,a,0,0.344
8007,RB,2,50,b,j,b,1,0.591
8007,RB,2,51,a,d,a,1,0.598
8007,RB,2,52,b,j,b,1,0.9790000000000001
8007,RB,2,53,b,j,b,1,1.129
8007,RB,2,54,a,d,a,1,0.585
8007,RB,2,55,b,j,b,1,0.5589999999999999
8007,RB,2,56,a,j,b,0,0.639
8007,RB,2,57,a,d,a,1,0.57
8007,RB,2,58,b,j,b,1,0.44799999999999995
8007,RB,2,59,a,j,b,0,1.004
8007,RB,2,60,a,j,b,0,0.49700000000000005
8007,RB,2,61,a,d,a,1,0.435
8007,RB,2,62,a,d,a,1,0.584
8007,RB,2,63,b,d,a,0,0.43700000000000006
8007,RB,2,64,a,j,b,0,0.418
8007,RB,2,65,a,d,a,1,0.375
8007,RB,2,66,b,j,b,1,0.469
8007,RB,2,67,b,j,b,1,0.742
8007,RB,2,68,b,j,b,1,0.679
8007,RB,2,69,b,j,b,1,0.409
8007,RB,2,70,b,j,b,1,0.389
8007,RB,2,71,a,j,b,0,0.308
8007,RB,2,72,b,j,b,1,0.428
8007,RB,2,73,b,j,b,1,0.49
8007,RB,2,74,a,j,b,0,0.363
8007,RB,2,75,b,j,b,1,0.386
8007,RB,2,76,a,d,a,1,0.737
8007,RB,2,77,b,j,b,1,0.495
8007,RB,2,78,a,j,b,0,1.0979999999999999
8007,RB,2,79,a,d,a,1,0.634
8007,RB,2,80,b,j,b,1,0.518
8057,RB,1,1,a,d,a,1,2.221
8057,RB,1,2,a,j,b,0,1.506
8057,RB,1,3,a,j,b,0,1.227
8057,RB,1,4,a,d,a,1,0.7509999999999999
8057,RB,1,5,a,d,a,1,0.701
8057,RB,1,6,b,j,b,1,1.024
8057,RB,1,7,a,d,a,1,1.004
8057,RB,1,8,b,j,b,1,0.5920000000000001
8057,RB,1,9,a,j,b,0,0.758
8057,RB,1,10,a,d,a,1,0.428
8057,RB,1,11,a,j,b,0,0.737
8057,RB,1,12,b,j,b,1,1.081
8057,RB,1,13,b,j,b,1,0.746
8057,RB,1,14,b,j,b,1,0.65
8057,RB,1,15,a,d,a,1,1.006
8057,RB,1,16,b,j,b,1,0.698
8057,RB,1,17,a,d,a,1,0.597
8057,RB,1,18,b,j,b,1,0.53
8057,RB,1,19,b,j,b,1,0.713
8057,RB,1,20,a,d,a,1,1.714
8057,RB,1,21,b,j,b,1,0.754
8057,RB,1,22,a,j,b,0,0.914
8057,RB,1,23,b,j,b,1,0.731
8057,RB,1,24,b,j,b,1,0.6579999999999999
8057,RB,1,25,b,j,b,1,0.59
8057,RB,1,26,b,j,b,1,0.667
8057,RB,1,27,b,j,b,1,0.638
8057,RB,1,28,a,j,b,0,0.7140000000000001
8057,RB,1,29,a,d,a,1,0.547
8057,RB,1,30,b,j,b,1,0.753
8057,RB,1,31,b,j,b,1,0.905
8057,RB,1,32,a,d,a,1,0.53
8057,RB,1,33,b,j,b,1,0.898
8057,RB,1,34,b,j,b,1,0.6990000000000001
8057,RB,1,35,a,d,a,1,1.036
8057,RB,1,36,a,d,a,1,1.129
8057,RB,1,37,a,j,b,0,0.434
8057,RB,1,38,a,d,a,1,0.741
8057,RB,1,39,b,j,b,1,0.733
8057,RB,1,40,a,d,a,1,1.395
8057,RB,1,41,b,j,b,1,0.698
8057,RB,1,42,a,d,a,1,0.98
8057,RB,1,43,b,j,b,1,0.537
8057,RB,1,44,a,d,a,1,0.722
8057,RB,1,45,a,j,b,0,0.42700000000000005
8057,RB,1,46,b,j,b,1,0.765
8057,RB,1,47,a,d,a,1,0.677
8057,RB,1,48,a,d,a,1,0.615
8057,RB,1,49,b,j,b,1,0.691
8057,RB,1,50,b,j,b,1,0.597
8057,RB,1,51,b,j,b,1,0.755
8057,RB,1,52,a,d,a,1,1.2329999999999999
8057,RB,1,53,a,d,a,1,1.758
8057,RB,1,54,a,d,a,1,1.507
8057,RB,1,55,b,j,b,1,0.596
8057,RB,1,56,a,j,b,0,2.7760000000000002
8057,RB,1,57,b,j,b,1,0.855
8057,RB,1,58,b,d,a,0,0.41
8057,RB,1,59,a,d,a,1,0.687
8057,RB,1,60,a,d,a,1,0.7140000000000001
8057,RB,1,61,b,j,b,1,0.657
8057,RB,1,62,b,j,b,1,0.693
8057,RB,1,63,a,d,a,1,0.966
8057,RB,1,64,a,d,a,1,1.012
8057,RB,1,65,a,d,a,1,0.841
8057,RB,1,66,b,j,b,1,0.74
8057,RB,1,67,b,j,b,1,0.7390000000000001
8057,RB,1,68,b,j,b,1,0.6829999999999999
8057,RB,1,69,b,j,b,1,0.516
8057,RB,1,70,a,d,a,1,0.526
8057,RB,1,71,b,d,a,0,0.55
8057,RB,1,72,a,d,a,1,0.877
8057,RB,1,73,b,j,b,1,0.46299999999999997
8057,RB,1,74,b,j,b,1,0.682
8057,RB,1,75,b,j,b,1,0.563
8057,RB,1,76,a,d,a,1,0.9309999999999999
8057,RB,1,77,b,j,b,1,0.5720000000000001
8057,RB,1,78,b,j,b,1,0.777
8057,RB,1,79,a,d,a,1,1.168
8057,RB,1,80,a,d,a,1,0.589
8136,II,3,1,a,d,a,1,1.214
8136,II,3,2,b,d,a,0,0.44299999999999995
8136,II,3,3,b,d,a,0,0.639
8136,II,3,4,a,j,b,0,0.978
8136,II,3,5,a,d,a,1,1.167
8136,II,3,6,b,d,a,0,0.7979999999999999
8136,II,3,7,b,d,a,0,0.818
8136,II,3,8,b,d,a,0,0.784
8136,II,3,9,a,j,b,0,1.23
8136,II,3,10,a,j,b,0,0.9209999999999999
8136,II,3,11,a,d,a,1,0.705
8136,II,3,12,b,d,a,0,0.626
8136,II,3,13,a,d,a,1,0.639
8136,II,3,14,a,d,a,1,0.747
8136,II,3,15,b,d,a,0,0.514
8136,II,3,16,b,d,a,0,0.635
8136,II,3,17,b,d,a,0,0.775
8136,II,3,18,a,d,a,1,0.708
8136,II,3,19,b,d,a,0,0.765
8136,II,3,20,b,d,a,0,0.621
8136,II,3,21,a,d,a,1,1.129
8136,II,3,22,b,d,a,0,0.713
8136,II,3,23,a,d,a,1,1.272
8136,II,3,24,a,j,b,0,0.9
8136,II,3,25,b,d,a,0,0.517
8136,II,3,26,b,d,a,0,0.797
8136,II,3,27,b,d,a,0,0.6509999999999999
8136,II,3,28,b,d,a,0,0.8059999999999999
8136,II,3,29,a,d,a,1,0.8029999999999999
8136,II,3,30,b,d,a,0,0.9440000000000001
8136,II,3,31,a,d,a,1,0.6629999999999999
8136,II,3,32,a,d,a,1,1.082
8136,II,3,33,b,d,a,0,0.94
8136,II,3,34,a,d,a,1,0.875
8136,II,3,35,b,d,a,0,0.871
8136,II,3,36,b,d,a,0,0.8009999999999999
8136,II,3,37,a,d,a,1,0.9259999999999999
8136,II,3,38,a,d,a,1,0.9259999999999999
8136,II,3,39,a,d,a,1,0.861
8136,II,3,40,b,d,a,0,0.9690000000000001
8136,II,3,41,a,d,a,1,1.119
8136,II,3,42,b,d,a,0,0.992
8136,II,3,43,a,d,a,1,0.79
8136,II,3,44,b,d,a,0,0.737
8136,II,3,45,a,j,b,0,1.0659999999999998
8136,II,3,46,a,d,a,1,0.733
8136,II,3,47,a,d,a,1,0.7170000000000001
8136,II,3,48,b,d,a,0,0.7340000000000001
8136,II,3,49,b,j,b,1,1.262
8136,II,3,50,a,d,a,1,0.672
8136,II,3,51,a,d,a,1,0.762
8136,II,3,52,b,d,a,0,0.5920000000000001
8136,II,3,53,a,d,a,1,0.8059999999999999
8136,II,3,54,b,d,a,0,0.715
8136,II,3,55,a,d,a,1,0.7390000000000001
8136,II,3,56,b,j,b,1,0.843
8136,II,3,57,a,j,b,0,0.8390000000000001
8136,II,3,58,a,d,a,1,0.826
8136,II,3,59,b,d,a,0,0.63
8136,II,3,60,a,d,a,1,0.578
8136,II,3,61,b,d,a,0,0.608
8136,II,3,62,a,j,b,0,0.7170000000000001
8136,II,3,63,b,j,b,1,1.189
8136,II,3,64,a,d,a,1,0.627
8136,II,3,65,b,d,a,0,0.976
8136,II,3,66,b,j,b,1,0.9259999999999999
8136,II,3,67,b,d,a,0,0.7020000000000001
8136,II,3,68,a,d,a,1,0.895
8136,II,3,69,b,d,a,0,0.664
8136,II,3,70,a,d,a,1,0.539
8136,II,3,71,a,d,a,1,0.737
8136,II,3,72,b,d,a,0,0.882
8136,II,3,73,a,d,a,1,0.757
8136,II,3,74,a,j,b,0,1.2670000000000001
8136,II,3,75,b,d,a,0,0.774
8136,II,3,76,a,d,a,1,0.828
8136,II,3,77,b,d,a,0,0.879
8136,II,3,78,b,d,a,0,0.738
8136,II,3,79,a,d,a,1,0.616
8136,II,3,80,b,d,a,0,0.8540000000000001
8046,RB,1,1,a,d,a,1,1.739
8046,RB,1,2,b,j,b,1,0.514
8046,RB,1,3,b,d,a,0,0.9159999999999999
8046,RB,1,4,a,d,a,1,0.845
8046,RB,1,5,a,j,b,0,0.527
8046,RB,1,6,b,d,a,0,0.9990000000000001
8046,RB,1,7,b,j,b,1,1.405
8046,RB,1,8,a,j,b,0,1.329
8046,RB,1,9,b,j,b,1,1.37
8046,RB,1,10,b,d,a,0,1.128
8046,RB,1,11,b,j,b,1,0.823
8046,RB,1,12,b,j,b,1,0.7070000000000001
8046,RB,1,13,b,j,b,1,0.741
8046,RB,1,14,b,j,b,1,1.124
8046,RB,1,15,a,j,b,0,0.787
8046,RB,1,16,b,j,b,1,0.8740000000000001
8046,RB,1,17,b,d,a,0,0.907
8046,RB,1,18,b,j,b,1,0.861
8046,RB,1,19,a,j,b,0,0.639
8046,RB,1,20,b,d,a,0,1.194
8046,RB,1,21,b,j,b,1,0.456
8046,RB,1,22,a,j,b,0,0.907
8046,RB,1,23,b,j,b,1,2.66
8046,RB,1,24,a,j,b,0,0.7170000000000001
8046,RB,1,25,a,d,a,1,0.79
8046,RB,1,26,b,j,b,1,0.723
8046,RB,1,27,a,j,b,0,1.0190000000000001
8046,RB,1,28,b,d,a,0,0.721
8046,RB,1,29,b,j,b,1,0.313
8046,RB,1,30,b,j,b,1,0.545
8046,RB,1,31,a,d,a,1,0.8809999999999999
8046,RB,1,32,b,j,b,1,0.6990000000000001
8046,RB,1,33,a,j,b,0,0.78
8046,RB,1,34,b,j,b,1,0.643
8046,RB,1,35,b,j,b,1,0.983
8046,RB,1,36,a,j,b,0,0.6990000000000001
8046,RB,1,37,a,j,b,0,1.013
8046,RB,1,38,a,d,a,1,0.6890000000000001
8046,RB,1,39,a,j,b,0,0.747
8046,RB,1,40,a,j,b,0,0.778
8046,RB,1,41,a,d,a,1,0.519
8046,RB,1,42,b,d,a,0,1.041
8046,RB,1,43,a,j,b,0,0.588
8046,RB,1,44,a,d,a,1,1.297
8046,RB,1,45,b,j,b,1,0.62
8046,RB,1,46,b,j,b,1,0.895
8046,RB,1,47,a,j,b,0,0.65
8046,RB,1,48,a,j,b,0,0.653
8046,RB,1,49,a,j,b,0,0.64
8046,RB,1,50,b,j,b,1,0.47600000000000003
8046,RB,1,51,a,j,b,0,1.3659999999999999
8046,RB,1,52,a,d,a,1,0.49200000000000005
8046,RB,1,53,b,j,b,1,0.7659999999999999
8046,RB,1,54,b,d,a,0,1.7719999999999998
8046,RB,1,55,a,j,b,0,0.7070000000000001
8046,RB,1,56,a,d,a,1,0.516
8046,RB,1,57,a,d,a,1,0.8109999999999999
8046,RB,1,58,a,j,b,0,1.057
8046,RB,1,59,a,j,b,0,0.996
8046,RB,1,60,a,d,a,1,0.8009999999999999
8046,RB,1,61,b,d,a,0,1.19
8046,RB,1,62,b,j,b,1,0.6509999999999999
8046,RB,1,63,a,j,b,0,0.879
8046,RB,1,64,b,j,b,1,0.929
8046,RB,1,65,b,d,a,0,0.752
8046,RB,1,66,b,j,b,1,0.512
8046,RB,1,67,b,j,b,1,0.618
8046,RB,1,68,b,j,b,1,0.574
8046,RB,1,69,a,j,b,0,0.5479999999999999
8046,RB,1,70,a,d,a,1,0.475
8046,RB,1,71,b,j,b,1,0.34
8046,RB,1,72,b,d,a,0,0.517
8046,RB,1,73,a,j,b,0,0.614
8046,RB,1,74,a,d,a,1,0.41
8046,RB,1,75,a,d,a,1,0.382
8046,RB,1,76,a,d,a,1,0.973
8046,RB,1,77,a,j,b,0,0.698
8046,RB,1,78,b,d,a,0,0.49200000000000005
8046,RB,1,79,b,j,b,1,0.5660000000000001
8046,RB,1,80,a,j,b,0,0.627
8088,II,3,1,a,d,a,1,3.556
8088,II,3,2,b,j,b,1,4.306
8088,II,3,3,a,j,b,0,3.298
8088,II,3,4,a,d,a,1,2.938
8088,II,3,5,a,d,a,1,3.346
8088,II,3,6,b,d,a,0,2.839
8088,II,3,7,b,d,a,0,2.818
8088,II,3,8,b,j,b,1,3.565
8088,II,3,9,b,j,b,1,2.323
8088,II,3,10,b,j,b,1,3.339
8088,II,3,11,a,j,b,0,3.466
8088,II,3,12,a,j,b,0,3.5380000000000003
8088,II,3,13,b,d,a,0,3.802
8088,II,3,14,a,d,a,1,3.735
8088,II,3,15,b,d,a,0,3.285
8088,II,3,16,a,d,a,1,2.51
8088,II,3,17,a,d,a,1,3.6630000000000003
8088,II,3,18,b,j,b,1,3.385
8088,II,3,19,b,d,a,0,4.2139999999999995
8088,II,3,20,a,j,b,0,4.465
8088,II,3,21,b,j,b,1,4.459
8088,II,3,22,a,d,a,1,3.844
8088,II,3,23,b,j,b,1,3.799
8088,II,3,24,a,d,a,1,4.1080000000000005
8088,II,3,25,b,j,b,1,3.49
8088,II,3,26,a,d,a,1,4.475
8088,II,3,27,b,j,b,1,4.156000000000001
8088,II,3,28,b,None,None,0,9999.0
8088,II,3,29,b,j,b,1,3.093
8088,II,3,30,b,j,b,1,3.741
8088,II,3,31,b,d,a,0,3.755
8088,II,3,32,a,None,None,0,9999.0
8088,II,3,33,a,j,b,0,3.614
8088,II,3,34,a,d,a,1,3.8810000000000002
8088,II,3,35,a,j,b,0,3.41
8088,II,3,36,b,j,b,1,4.207
8088,II,3,37,a,j,b,0,3.8089999999999997
8088,II,3,38,a,d,a,1,3.389
8088,II,3,39,a,j,b,0,3.483
8088,II,3,40,a,d,a,1,3.516
8088,II,3,41,a,d,a,1,2.8989999999999996
8088,II,3,42,a,j,b,0,3.668
8088,II,3,43,a,j,b,0,3.213
8088,II,3,44,b,d,a,0,3.449
8088,II,3,45,a,d,a,1,4.283
8088,II,3,46,a,d,a,1,2.156
8088,II,3,47,a,d,a,1,2.283
8088,II,3,48,a,j,b,0,3.0039999999999996
8088,II,3,49,a,j,b,0,3.424
8088,II,3,50,a,d,a,1,1.859
8088,II,3,51,a,j,b,0,3.198
8088,II,3,52,b,None,None,0,9999.0
8088,II,3,53,b,j,b,1,1.631
8088,II,3,54,b,j,b,1,3.114
8088,II,3,55,b,j,b,1,3.218
8088,II,3,56,b,j,b,1,3.156
8088,II,3,57,b,j,b,1,3.403
8088,II,3,58,b,j,b,1,4.729
8088,II,3,59,a,j,b,0,3.4219999999999997
8088,II,3,60,b,d,a,0,4.29
8088,II,3,61,a,d,a,1,3.0010000000000003
8088,II,3,62,b,d,a,0,2.7110000000000003
8088,II,3,63,a,j,b,0,3.175
8088,II,3,64,b,j,b,1,3.156
8088,II,3,65,b,j,b,1,2.714
8088,II,3,66,a,d,a,1,2.137
8088,II,3,67,b,j,b,1,2.978
8088,II,3,68,b,d,a,0,3.6310000000000002
8088,II,3,69,b,j,b,1,3.09
8088,II,3,70,a,j,b,0,4.026
8088,II,3,71,a,j,b,0,3.253
8088,II,3,72,b,d,a,0,4.279
8088,II,3,73,b,j,b,1,2.8480000000000003
8088,II,3,74,b,d,a,0,2.772
8088,II,3,75,b,d,a,0,2.4330000000000003
8088,II,3,76,a,j,b,0,3.7239999999999998
8088,II,3,77,a,d,a,1,3.0189999999999997
8088,II,3,78,b,j,b,1,3.7430000000000003
8088,II,3,79,a,d,a,1,0.285
8088,II,3,80,b,j,b,1,2.639
8100,RB,2,1,b,j,b,1,2.887
8100,RB,2,2,b,j,b,1,0.503
8100,RB,2,3,a,d,a,1,0.5770000000000001
8100,RB,2,4,b,d,a,0,0.983
8100,RB,2,5,a,d,a,1,0.6759999999999999
8100,RB,2,6,b,j,b,1,0.639
8100,RB,2,7,b,j,b,1,0.5710000000000001
8100,RB,2,8,a,d,a,1,0.9840000000000001
8100,RB,2,9,a,d,a,1,0.551
8100,RB,2,10,a,d,a,1,0.615
8100,RB,2,11,b,d,a,0,0.8190000000000001
8100,RB,2,12,a,d,a,1,0.64
8100,RB,2,13,b,j,b,1,1.1159999999999999
8100,RB,2,14,a,j,b,0,0.804
8100,RB,2,15,b,d,a,0,0.69
8100,RB,2,16,a,d,a,1,0.594
8100,RB,2,17,a,d,a,1,0.504
8100,RB,2,18,a,d,a,1,0.498
8100,RB,2,19,b,j,b,1,0.562
8100,RB,2,20,a,d,a,1,0.521
8100,RB,2,21,b,j,b,1,0.69
8100,RB,2,22,a,j,b,0,0.522
8100,RB,2,23,a,d,a,1,0.8909999999999999
8100,RB,2,24,a,d,a,1,0.501
8100,RB,2,25,b,d,a,0,0.542
8100,RB,2,26,a,d,a,1,0.5329999999999999
8100,RB,2,27,a,d,a,1,0.846
8100,RB,2,28,a,d,a,1,0.41600000000000004
8100,RB,2,29,a,d,a,1,0.397
8100,RB,2,30,a,d,a,1,0.915
8100,RB,2,31,b,d,a,0,0.395
8100,RB,2,32,a,d,a,1,0.521
8100,RB,2,33,a,d,a,1,1.5619999999999998
8100,RB,2,34,b,d,a,0,0.504
8100,RB,2,35,a,d,a,1,0.48200000000000004
8100,RB,2,36,b,d,a,0,0.7240000000000001
8100,RB,2,37,b,j,b,1,0.428
8100,RB,2,38,b,d,a,0,1.016
8100,RB,2,39,a,j,b,0,0.525
8100,RB,2,40,a,d,a,1,0.604
8100,RB,2,41,b,j,b,1,0.794
8100,RB,2,42,a,d,a,1,0.688
8100,RB,2,43,b,j,b,1,0.657
8100,RB,2,44,a,d,a,1,0.6679999999999999
8100,RB,2,45,b,j,b,1,1.031
8100,RB,2,46,b,j,b,1,0.779
8100,RB,2,47,a,d,a,1,0.5529999999999999
8100,RB,2,48,b,d,a,0,1.097
8100,RB,2,49,a,d,a,1,0.96
8100,RB,2,50,b,j,b,1,0.674
8100,RB,2,51,a,d,a,1,0.618
8100,RB,2,52,a,d,a,1,0.848
8100,RB,2,53,b,j,b,1,0.835
8100,RB,2,54,a,d,a,1,0.614
8100,RB,2,55,b,j,b,1,1.3559999999999999
8100,RB,2,56,b,d,a,0,0.937
8100,RB,2,57,a,d,a,1,0.649
8100,RB,2,58,a,j,b,0,0.8059999999999999
8100,RB,2,59,b,j,b,1,0.6409999999999999
8100,RB,2,60,b,j,b,1,0.789
8100,RB,2,61,b,j,b,1,0.643
8100,RB,2,62,a,d,a,1,0.7020000000000001
8100,RB,2,63,a,d,a,1,0.695
8100,RB,2,64,b,j,b,1,1.089
8100,RB,2,65,b,d,a,0,0.778
8100,RB,2,66,b,d,a,0,2.128
8100,RB,2,67,b,j,b,1,0.735
8100,RB,2,68,a,d,a,1,0.792
8100,RB,2,69,a,d,a,1,0.556
8100,RB,2,70,b,j,b,1,1.651
8100,RB,2,71,b,j,b,1,0.695
8100,RB,2,72,b,j,b,1,0.664
8100,RB,2,73,a,d,a,1,0.8590000000000001
8100,RB,2,74,b,j,b,1,0.6679999999999999
8100,RB,2,75,b,j,b,1,1.176
8100,RB,2,76,a,d,a,1,0.71
8100,RB,2,77,b,j,b,1,0.846
8100,RB,2,78,b,j,b,1,1.065
8100,RB,2,79,a,d,a,1,0.7809999999999999
8100,RB,2,80,b,j,b,1,0.626
8101,II,3,1,a,d,a,1,1.361
8101,II,3,2,a,j,b,0,1.1440000000000001
8101,II,3,3,b,j,b,1,0.958
8101,II,3,4,a,d,a,1,0.677
8101,II,3,5,b,d,a,0,1.056
8101,II,3,6,b,j,b,1,0.691
8101,II,3,7,a,j,b,0,1.2919999999999998
8101,II,3,8,a,d,a,1,1.045
8101,II,3,9,b,j,b,1,1.256
8101,II,3,10,b,j,b,1,0.9059999999999999
8101,II,3,11,b,j,b,1,2.084
8101,II,3,12,b,j,b,1,0.7170000000000001
8101,II,3,13,b,j,b,1,1.4069999999999998
8101,II,3,14,a,d,a,1,1.0590000000000002
8101,II,3,15,a,d,a,1,0.613
8101,II,3,16,a,d,a,1,1.242
8101,II,3,17,b,d,a,0,1.021
8101,II,3,18,b,d,a,0,0.7140000000000001
8101,II,3,19,b,d,a,0,1.371
8101,II,3,20,b,j,b,1,1.113
8101,II,3,21,a,j,b,0,0.8340000000000001
8101,II,3,22,a,d,a,1,1.229
8101,II,3,23,a,d,a,1,1.3459999999999999
8101,II,3,24,a,d,a,1,0.736
8101,II,3,25,b,j,b,1,0.8079999999999999
8101,II,3,26,a,d,a,1,2.022
8101,II,3,27,a,j,b,0,0.642
8101,II,3,28,b,j,b,1,0.669
8101,II,3,29,a,d,a,1,1.1909999999999998
8101,II,3,30,a,d,a,1,3.813
8101,II,3,31,b,j,b,1,0.6890000000000001
8101,II,3,32,a,d,a,1,0.7709999999999999
8101,II,3,33,b,j,b,1,1.8559999999999999
8101,II,3,34,b,j,b,1,1.067
8101,II,3,35,a,d,a,1,0.669
8101,II,3,36,b,j,b,1,1.912
8101,II,3,37,a,d,a,1,1.28
8101,II,3,38,a,d,a,1,0.69
8101,II,3,39,a,d,a,1,2.171
8101,II,3,40,b,j,b,1,1.074
8101,II,3,41,a,d,a,1,0.8029999999999999
8101,II,3,42,a,j,b,0,0.9129999999999999
8101,II,3,43,b,j,b,1,0.85
