Subject,Block,StimType,Trial,Stimulus,KEY,RESP,Accuracy,RT
8040,SupervisedSparse,nottarget,1,catch4,n,nottarget,1,3.361
8040,SupervisedSparse,target,2,test14,x,target,1,1.046
8040,SupervisedSparse,target,3,test1,x,target,1,0.561
8040,SupervisedSparse,nottarget,4,contr15,n,nottarget,1,0.736
8040,SupervisedSparse,nottarget,5,contr4,n,nottarget,1,0.5760000000000001
8040,SupervisedSparse,nottarget,6,contr6,n,nottarget,1,0.38299999999999995
8040,SupervisedSparse,target,7,test13,x,target,1,0.5710000000000001
8040,SupervisedSparse,nottarget,8,contr9,n,nottarget,1,0.45899999999999996
8040,SupervisedSparse,nottarget,9,contr10,n,nottarget,1,0.5579999999999999
8040,SupervisedSparse,nottarget,10,catch8,n,nottarget,1,0.956
8040,SupervisedSparse,nottarget,11,contr11,n,nottarget,1,0.515
8040,SupervisedSparse,target,12,test8,x,target,1,0.363
8040,SupervisedSparse,target,13,test7,x,target,1,0.37
8040,SupervisedSparse,nottarget,14,catch7,n,nottarget,1,0.672
8040,SupervisedSparse,nottarget,15,contr12,n,nottarget,1,0.555
8040,SupervisedSparse,nottarget,16,contr3,n,nottarget,1,0.33
8040,SupervisedSparse,nottarget,17,contr13,n,nottarget,1,0.322
8040,SupervisedSparse,target,18,test15,x,target,1,0.475
8040,SupervisedSparse,target,19,test4,x,target,1,0.31
8040,SupervisedSparse,nottarget,20,catch6,n,nottarget,1,0.397
8040,SupervisedSparse,target,21,test6,x,target,1,0.5710000000000001
8040,SupervisedSparse,nottarget,22,catch3,n,nottarget,1,0.5379999999999999
8040,SupervisedSparse,nottarget,23,catch1,n,nottarget,1,0.39299999999999996
8040,SupervisedSparse,nottarget,24,contr2,n,nottarget,1,0.423
8040,SupervisedSparse,target,25,test11,x,target,1,0.66
8040,SupervisedSparse,nottarget,26,contr1,n,nottarget,1,0.47100000000000003
8040,SupervisedSparse,nottarget,27,catch5,n,nottarget,1,0.514
8040,SupervisedSparse,target,28,test10,x,target,1,0.49
8040,SupervisedSparse,target,29,test2,x,target,1,0.612
8040,SupervisedSparse,target,30,test3,x,target,1,0.376
8040,SupervisedSparse,target,31,test5,x,target,1,0.5670000000000001
8040,SupervisedSparse,nottarget,32,contr5,n,nottarget,1,0.502
8040,SupervisedSparse,target,33,test12,x,target,1,0.501
8040,SupervisedSparse,nottarget,34,catch2,n,nottarget,1,0.46399999999999997
8040,SupervisedSparse,target,35,test9,x,target,1,0.555
8040,SupervisedSparse,nottarget,36,contr16,n,nottarget,1,0.682
8040,SupervisedSparse,target,37,test16,x,target,1,0.42
8040,SupervisedSparse,nottarget,38,contr8,n,nottarget,1,0.465
8040,SupervisedSparse,nottarget,39,contr7,n,nottarget,1,0.564
8040,SupervisedSparse,nottarget,40,contr14,n,nottarget,1,0.37
8040,SupervisedDense,target,1,test10,x,target,1,1.8730000000000002
8040,SupervisedDense,nottarget,2,catch4,n,nottarget,1,0.9209999999999999
8040,SupervisedDense,nottarget,3,catch7,n,nottarget,1,0.963
8040,SupervisedDense,nottarget,4,contr12,n,nottarget,1,0.586
8040,SupervisedDense,nottarget,5,contr4,n,nottarget,1,0.447
8040,SupervisedDense,target,6,test11,x,target,1,0.635
8040,SupervisedDense,nottarget,7,contr7,n,nottarget,1,0.496
8040,SupervisedDense,nottarget,8,catch2,n,nottarget,1,0.616
8040,SupervisedDense,nottarget,9,contr8,n,nottarget,1,0.534
8040,SupervisedDense,nottarget,10,catch8,n,nottarget,1,0.478
8040,SupervisedDense,nottarget,11,catch1,n,nottarget,1,0.408
8040,SupervisedDense,target,12,test1,x,target,1,0.62
8040,SupervisedDense,nottarget,13,contr13,n,nottarget,1,0.522
8040,SupervisedDense,nottarget,14,contr11,n,nottarget,1,0.5379999999999999
8040,SupervisedDense,target,15,test8,x,target,1,0.562
8040,SupervisedDense,nottarget,16,contr16,n,nottarget,1,0.449
8040,SupervisedDense,nottarget,17,contr1,n,nottarget,1,0.373
8040,SupervisedDense,nottarget,18,catch6,n,nottarget,1,0.467
8040,SupervisedDense,target,19,test16,x,target,1,0.485
8040,SupervisedDense,nottarget,20,contr3,n,nottarget,1,0.527
8040,SupervisedDense,target,21,test7,x,target,1,0.391
8040,SupervisedDense,target,22,test15,x,target,1,0.5329999999999999
8040,SupervisedDense,nottarget,23,contr5,n,nottarget,1,0.589
8040,SupervisedDense,target,24,test9,x,target,1,0.498
8040,SupervisedDense,nottarget,25,contr9,n,nottarget,1,0.444
8040,SupervisedDense,nottarget,26,catch5,n,nottarget,1,0.496
8040,SupervisedDense,nottarget,27,contr2,n,nottarget,1,0.496
8040,SupervisedDense,target,28,test13,x,target,1,0.498
8040,SupervisedDense,target,29,test12,x,target,1,0.5710000000000001
8040,SupervisedDense,target,30,test14,x,target,1,0.419
8040,SupervisedDense,nottarget,31,catch3,n,nottarget,1,0.38299999999999995
8040,SupervisedDense,target,32,test5,x,target,1,0.589
8040,SupervisedDense,target,33,test4,n,nottarget,0,0.396
8040,SupervisedDense,nottarget,34,contr15,n,nottarget,1,0.88
8040,SupervisedDense,target,35,test2,x,target,1,0.379
8040,SupervisedDense,nottarget,36,contr14,n,nottarget,1,0.49
8040,SupervisedDense,nottarget,37,contr10,n,nottarget,1,0.434
8040,SupervisedDense,target,38,test3,x,target,1,0.51
8040,SupervisedDense,nottarget,39,contr6,n,nottarget,1,0.544
8040,SupervisedDense,target,40,test6,x,target,1,0.455
8040,UnsupervisedSparse,target,1,test11,n,nottarget,0,4.6419999999999995
8040,UnsupervisedSparse,target,2,test4,x,target,1,0.7240000000000001
8040,UnsupervisedSparse,nottarget,3,catch8,n,nottarget,1,1.013
8040,UnsupervisedSparse,nottarget,4,contr15,x,target,0,0.7609999999999999
8040,UnsupervisedSparse,nottarget,5,contr9,x,target,0,0.623
8040,UnsupervisedSparse,nottarget,6,contr1,n,nottarget,1,1.052
8040,UnsupervisedSparse,nottarget,7,catch7,n,nottarget,1,0.7979999999999999
8040,UnsupervisedSparse,target,8,test10,n,nottarget,0,0.35700000000000004
8040,UnsupervisedSparse,target,9,test9,x,target,1,0.275
8040,UnsupervisedSparse,nottarget,10,contr7,n,nottarget,1,0.317
8040,UnsupervisedSparse,target,11,test3,x,target,1,0.0
8040,UnsupervisedSparse,nottarget,12,contr2,n,nottarget,1,0.0
8040,UnsupervisedSparse,nottarget,13,contr5,n,nottarget,1,0.945
8040,UnsupervisedSparse,target,14,test15,x,target,1,0.695
8040,UnsupervisedSparse,nottarget,15,catch3,n,nottarget,1,0.48200000000000004
8040,UnsupervisedSparse,target,16,test6,x,target,1,0.66
8040,UnsupervisedSparse,nottarget,17,contr10,n,nottarget,1,1.07
8040,UnsupervisedSparse,nottarget,18,contr4,n,nottarget,1,0.49700000000000005
8040,UnsupervisedSparse,nottarget,19,contr11,x,target,0,0.627
8040,UnsupervisedSparse,target,20,test12,n,nottarget,0,0.326
8040,UnsupervisedSparse,nottarget,21,contr6,x,target,0,0.39899999999999997
8040,UnsupervisedSparse,nottarget,22,catch6,x,target,0,0.278
8040,UnsupervisedSparse,target,23,test14,n,nottarget,0,0.294
8040,UnsupervisedSparse,nottarget,24,contr14,x,target,0,0.568
8040,UnsupervisedSparse,nottarget,25,contr8,x,target,0,0.375
8040,UnsupervisedSparse,nottarget,26,catch4,n,nottarget,1,0.42200000000000004
8040,UnsupervisedSparse,target,27,test7,x,target,1,0.32899999999999996
8040,UnsupervisedSparse,target,28,test2,x,target,1,0.33
8040,UnsupervisedSparse,nottarget,29,catch2,n,nottarget,1,0.61
8040,UnsupervisedSparse,target,30,test8,x,target,1,0.574
8040,UnsupervisedSparse,nottarget,31,contr13,n,nottarget,1,0.33299999999999996
8040,UnsupervisedSparse,target,32,test16,x,target,1,0.461
8040,UnsupervisedSparse,nottarget,33,contr12,x,target,0,0.327
8040,UnsupervisedSparse,nottarget,34,contr16,x,target,0,0.287
8040,UnsupervisedSparse,target,35,test5,x,target,1,0.315
8040,UnsupervisedSparse,target,36,test1,x,target,1,0.419
8040,UnsupervisedSparse,target,37,test13,x,target,1,0.303
8040,UnsupervisedSparse,nottarget,38,catch5,x,target,0,0.289
8040,UnsupervisedSparse,nottarget,39,catch1,n,nottarget,1,0.418
8040,UnsupervisedSparse,nottarget,40,contr3,n,nottarget,1,0.36
8040,UnsupervisedDense,target,1,test3,x,target,1,3.424
8040,UnsupervisedDense,nottarget,2,catch3,n,nottarget,1,1.067
8040,UnsupervisedDense,target,3,test5,x,target,1,0.526
8040,UnsupervisedDense,target,4,test16,x,target,1,0.5579999999999999
8040,UnsupervisedDense,nottarget,5,catch8,n,nottarget,1,0.428
8040,UnsupervisedDense,nottarget,6,contr8,n,nottarget,1,1.153
8040,UnsupervisedDense,target,7,test10,x,target,1,0.5489999999999999
8040,UnsupervisedDense,nottarget,8,catch7,n,nottarget,1,0.43799999999999994
8040,UnsupervisedDense,nottarget,9,contr1,n,nottarget,1,0.89
8040,UnsupervisedDense,nottarget,10,catch1,n,nottarget,1,0.594
8040,UnsupervisedDense,target,11,test8,x,target,1,0.76
8040,UnsupervisedDense,target,12,test15,x,target,1,0.6629999999999999
8040,UnsupervisedDense,nottarget,13,catch6,n,nottarget,1,0.489
8040,UnsupervisedDense,nottarget,14,contr13,n,nottarget,1,0.804
8040,UnsupervisedDense,target,15,test1,x,target,1,0.5529999999999999
8040,UnsupervisedDense,target,16,test4,x,target,1,1.232
8040,UnsupervisedDense,nottarget,17,contr5,n,nottarget,1,0.773
8040,UnsupervisedDense,target,18,test12,x,target,1,0.915
8040,UnsupervisedDense,nottarget,19,contr16,n,nottarget,1,0.899
8040,UnsupervisedDense,target,20,test6,x,target,1,0.684
8040,UnsupervisedDense,nottarget,21,catch5,n,nottarget,1,0.516
8040,UnsupervisedDense,target,22,test13,x,target,1,0.87
8040,UnsupervisedDense,nottarget,23,contr10,n,nottarget,1,0.937
8040,UnsupervisedDense,nottarget,24,catch4,n,nottarget,1,0.527
8040,UnsupervisedDense,nottarget,25,contr2,n,nottarget,1,0.664
8040,UnsupervisedDense,target,26,test11,x,target,1,0.57
8040,UnsupervisedDense,nottarget,27,contr11,n,nottarget,1,0.6629999999999999
8040,UnsupervisedDense,nottarget,28,contr12,x,target,0,0.595
8040,UnsupervisedDense,nottarget,29,contr3,n,nottarget,1,0.68
8040,UnsupervisedDense,nottarget,30,contr14,n,nottarget,1,0.488
8040,UnsupervisedDense,target,31,test14,n,nottarget,0,0.387
8040,UnsupervisedDense,target,32,test7,x,target,1,0.618
8040,UnsupervisedDense,target,33,test2,x,target,1,0.5720000000000001
8040,UnsupervisedDense,nottarget,34,contr15,n,nottarget,1,0.42700000000000005
8040,UnsupervisedDense,nottarget,35,contr9,n,nottarget,1,0.455
8040,UnsupervisedDense,nottarget,36,catch2,n,nottarget,1,0.545
8040,UnsupervisedDense,nottarget,37,contr7,n,nottarget,1,0.858
8040,UnsupervisedDense,nottarget,38,contr4,n,nottarget,1,0.6609999999999999
8040,UnsupervisedDense,nottarget,39,contr6,x,target,0,0.823
8040,UnsupervisedDense,target,40,test9,x,target,1,0.626
8140,SupervisedDense,nottarget,1,contr12,n,nottarget,1,1.804
8140,SupervisedDense,nottarget,2,contr15,n,nottarget,1,1.864
8140,SupervisedDense,target,3,test1,x,target,1,1.315
8140,SupervisedDense,nottarget,4,catch5,n,nottarget,1,1.475
8140,SupervisedDense,nottarget,5,contr9,n,nottarget,1,1.117
8140,SupervisedDense,nottarget,6,contr1,n,nottarget,1,0.797
8140,SupervisedDense,target,7,test10,x,target,1,0.8340000000000001
8140,SupervisedDense,nottarget,8,contr14,n,nottarget,1,0.67
8140,SupervisedDense,target,9,test15,x,target,1,0.545
8140,SupervisedDense,target,10,test11,x,target,1,0.904
8140,SupervisedDense,nottarget,11,catch8,n,nottarget,1,1.12
8140,SupervisedDense,nottarget,12,contr8,n,nottarget,1,0.713
8140,SupervisedDense,nottarget,13,contr11,n,nottarget,1,0.474
8140,SupervisedDense,nottarget,14,contr16,n,nottarget,1,0.475
8140,SupervisedDense,nottarget,15,contr13,n,nottarget,1,0.598
8140,SupervisedDense,nottarget,16,contr5,n,nottarget,1,0.556
8140,SupervisedDense,nottarget,17,catch3,n,nottarget,1,0.746
8140,SupervisedDense,nottarget,18,catch1,n,nottarget,1,0.682
8140,SupervisedDense,nottarget,19,contr2,n,nottarget,1,0.588
8140,SupervisedDense,target,20,test4,x,target,1,0.594
8140,SupervisedDense,target,21,test13,x,target,1,0.39899999999999997
8140,SupervisedDense,nottarget,22,contr7,n,nottarget,1,0.677
8140,SupervisedDense,nottarget,23,contr4,n,nottarget,1,0.486
8140,SupervisedDense,target,24,test2,x,target,1,0.601
8140,SupervisedDense,nottarget,25,contr6,n,nottarget,1,0.5820000000000001
8140,SupervisedDense,target,26,test5,x,target,1,0.9
8140,SupervisedDense,target,27,test9,x,target,1,0.581
8140,SupervisedDense,target,28,test7,x,target,1,0.588
8140,SupervisedDense,nottarget,29,catch2,n,nottarget,1,0.7040000000000001
8140,SupervisedDense,target,30,test14,x,target,1,0.578
8140,SupervisedDense,nottarget,31,catch7,n,nottarget,1,0.528
8140,SupervisedDense,nottarget,32,contr3,n,nottarget,1,0.488
8140,SupervisedDense,nottarget,33,contr10,n,nottarget,1,0.474
8140,SupervisedDense,target,34,test3,x,target,1,0.469
8140,SupervisedDense,nottarget,35,catch6,n,nottarget,1,0.47100000000000003
8140,SupervisedDense,nottarget,36,catch4,n,nottarget,1,0.6579999999999999
8140,SupervisedDense,target,37,test16,x,target,1,0.628
8140,SupervisedDense,target,38,test6,n,nottarget,0,0.601
8140,SupervisedDense,target,39,test12,x,target,1,0.525
8140,SupervisedDense,target,40,test8,x,target,1,0.45399999999999996
8140,UnsupervisedDense,target,1,test13,x,target,1,1.095
8140,UnsupervisedDense,nottarget,2,catch2,n,nottarget,1,1.0959999999999999
8140,UnsupervisedDense,nottarget,3,catch1,n,nottarget,1,1.041
8140,UnsupervisedDense,target,4,test15,x,target,1,0.652
8140,UnsupervisedDense,nottarget,5,catch7,n,nottarget,1,0.7440000000000001
8140,UnsupervisedDense,nottarget,6,contr2,n,nottarget,1,1.6480000000000001
8140,UnsupervisedDense,nottarget,7,contr13,n,nottarget,1,0.531
8140,UnsupervisedDense,nottarget,8,contr6,n,nottarget,1,0.8909999999999999
8140,UnsupervisedDense,nottarget,9,contr7,n,nottarget,1,0.499
8140,UnsupervisedDense,nottarget,10,catch3,n,nottarget,1,0.532
8140,UnsupervisedDense,nottarget,11,contr8,n,nottarget,1,0.652
8140,UnsupervisedDense,target,12,test6,x,target,1,0.703
8140,UnsupervisedDense,nottarget,13,catch8,n,nottarget,1,0.52
8140,UnsupervisedDense,target,14,test16,x,target,1,0.825
8140,UnsupervisedDense,nottarget,15,contr9,n,nottarget,1,0.5870000000000001
8140,UnsupervisedDense,target,16,test8,x,target,1,0.562
8140,UnsupervisedDense,target,17,test2,x,target,1,0.721
8140,UnsupervisedDense,nottarget,18,contr3,n,nottarget,1,0.545
8140,UnsupervisedDense,target,19,test1,x,target,1,1.296
8140,UnsupervisedDense,nottarget,20,contr15,n,nottarget,1,0.521
8140,UnsupervisedDense,target,21,test7,x,target,1,0.521
8140,UnsupervisedDense,target,22,test14,x,target,1,0.642
8140,UnsupervisedDense,target,23,test4,n,nottarget,0,0.637
8140,UnsupervisedDense,nottarget,24,catch4,n,nottarget,1,0.703
8140,UnsupervisedDense,nottarget,25,contr1,n,nottarget,1,0.593
8140,UnsupervisedDense,nottarget,26,contr5,n,nottarget,1,0.6940000000000001
8140,UnsupervisedDense,nottarget,27,catch5,n,nottarget,1,0.5429999999999999
8140,UnsupervisedDense,nottarget,28,contr14,n,nottarget,1,0.647
8140,UnsupervisedDense,nottarget,29,catch6,n,nottarget,1,0.586
8140,UnsupervisedDense,target,30,test5,x,target,1,0.655
8140,UnsupervisedDense,nottarget,31,contr11,n,nottarget,1,0.604
8140,UnsupervisedDense,target,32,test12,x,target,1,0.56
8140,UnsupervisedDense,target,33,test3,x,target,1,0.631
8140,UnsupervisedDense,target,34,test10,x,target,1,0.539
8140,UnsupervisedDense,nottarget,35,contr10,n,nottarget,1,0.61
8140,UnsupervisedDense,nottarget,36,contr4,n,nottarget,1,0.653
8140,UnsupervisedDense,target,37,test9,x,target,1,0.585
8140,UnsupervisedDense,nottarget,38,contr12,n,nottarget,1,0.568
8140,UnsupervisedDense,target,39,test11,x,target,1,0.662
8140,UnsupervisedDense,nottarget,40,contr16,n,nottarget,1,0.625
8140,UnsupervisedSparse,nottarget,1,contr14,n,nottarget,1,1.726
8140,UnsupervisedSparse,target,2,test15,x,target,1,0.997
8140,UnsupervisedSparse,nottarget,3,contr16,n,nottarget,1,0.731
8140,UnsupervisedSparse,target,4,test10,x,target,1,0.8009999999999999
8140,UnsupervisedSparse,target,5,test3,x,target,1,0.7120000000000001
8140,UnsupervisedSparse,target,6,test13,x,target,1,0.8170000000000001
8140,UnsupervisedSparse,target,7,test9,x,target,1,0.716
8140,UnsupervisedSparse,nottarget,8,contr11,n,nottarget,1,0.797
8140,UnsupervisedSparse,nottarget,9,catch4,n,nottarget,1,0.795
8140,UnsupervisedSparse,nottarget,10,contr2,n,nottarget,1,0.9690000000000001
8140,UnsupervisedSparse,nottarget,11,contr9,n,nottarget,1,0.607
8140,UnsupervisedSparse,target,12,test6,x,target,1,0.635
8140,UnsupervisedSparse,nottarget,13,catch7,n,nottarget,1,0.679
8140,UnsupervisedSparse,target,14,test1,x,target,1,0.978
8140,UnsupervisedSparse,nottarget,15,catch5,x,target,0,0.735
8140,UnsupervisedSparse,nottarget,16,contr6,n,nottarget,1,1.047
8140,UnsupervisedSparse,nottarget,17,catch3,n,nottarget,1,0.7070000000000001
8140,UnsupervisedSparse,nottarget,18,contr8,n,nottarget,1,0.691
8140,UnsupervisedSparse,nottarget,19,contr10,n,nottarget,1,0.654
8140,UnsupervisedSparse,nottarget,20,contr5,n,nottarget,1,0.985
8140,UnsupervisedSparse,nottarget,21,contr13,n,nottarget,1,0.598
8140,UnsupervisedSparse,nottarget,22,catch1,n,nottarget,1,0.733
8140,UnsupervisedSparse,nottarget,23,contr15,n,nottarget,1,0.755
8140,UnsupervisedSparse,nottarget,24,catch2,n,nottarget,1,0.731
8140,UnsupervisedSparse,target,25,test14,x,target,1,0.828
8140,UnsupervisedSparse,nottarget,26,contr12,n,nottarget,1,0.5820000000000001
8140,UnsupervisedSparse,target,27,test16,x,target,1,0.8059999999999999
8140,UnsupervisedSparse,target,28,test4,x,target,1,0.8270000000000001
8140,UnsupervisedSparse,target,29,test2,x,target,1,0.71
8140,UnsupervisedSparse,target,30,test12,x,target,1,0.631
8140,UnsupervisedSparse,target,31,test7,x,target,1,1.22
8140,UnsupervisedSparse,nottarget,32,contr7,n,nottarget,1,0.943
8140,UnsupervisedSparse,nottarget,33,contr4,n,nottarget,1,0.912
8140,UnsupervisedSparse,nottarget,34,contr1,n,nottarget,1,0.551
8140,UnsupervisedSparse,nottarget,35,catch8,n,nottarget,1,0.6859999999999999
8140,UnsupervisedSparse,target,36,test8,x,target,1,1.025
8140,UnsupervisedSparse,nottarget,37,contr3,n,nottarget,1,0.708
8140,UnsupervisedSparse,target,38,test11,x,target,1,1.126
8140,UnsupervisedSparse,nottarget,39,catch6,n,nottarget,1,0.645
8140,UnsupervisedSparse,target,40,test5,x,target,1,0.7440000000000001
8140,SupervisedSparse,target,1,test7,x,target,1,1.849
8140,SupervisedSparse,nottarget,2,contr11,n,nottarget,1,1.133
8140,SupervisedSparse,target,3,test14,x,target,1,0.6920000000000001
8140,SupervisedSparse,target,4,test9,x,target,1,0.71
8140,SupervisedSparse,target,5,test3,x,target,1,0.583
8140,SupervisedSparse,target,6,test12,x,target,1,0.9309999999999999
8140,SupervisedSparse,target,7,test4,x,target,1,0.764
8140,SupervisedSparse,nottarget,8,contr14,n,nottarget,1,0.556
8140,SupervisedSparse,nottarget,9,catch1,n,nottarget,1,0.506
8140,SupervisedSparse,nottarget,10,contr10,x,target,0,0.915
8140,SupervisedSparse,nottarget,11,contr7,n,nottarget,1,0.6679999999999999
8140,SupervisedSparse,target,12,test6,x,target,1,2.421
8140,SupervisedSparse,nottarget,13,catch3,n,nottarget,1,0.682
8140,SupervisedSparse,nottarget,14,contr8,n,nottarget,1,0.764
8140,SupervisedSparse,target,15,test15,x,target,1,0.818
8140,SupervisedSparse,target,16,test2,x,target,1,0.573
8140,SupervisedSparse,nottarget,17,catch5,n,nottarget,1,0.564
8140,SupervisedSparse,nottarget,18,contr15,n,nottarget,1,0.747
8140,SupervisedSparse,nottarget,19,contr4,n,nottarget,1,0.562
8140,SupervisedSparse,target,20,test10,x,target,1,0.528
8140,SupervisedSparse,nottarget,21,contr13,n,nottarget,1,0.536
8140,SupervisedSparse,target,22,test1,x,target,1,0.48
8140,SupervisedSparse,target,23,test8,x,target,1,0.505
8140,SupervisedSparse,nottarget,24,catch8,n,nottarget,1,0.547
8140,SupervisedSparse,nottarget,25,contr2,n,nottarget,1,0.61
8140,SupervisedSparse,target,26,test13,x,target,1,0.495
8140,SupervisedSparse,target,27,test11,x,target,1,0.504
8140,SupervisedSparse,nottarget,28,catch7,n,nottarget,1,0.49
8140,SupervisedSparse,nottarget,29,contr1,n,nottarget,1,0.586
8140,SupervisedSparse,target,30,test5,x,target,1,0.521
8140,SupervisedSparse,nottarget,31,contr3,n,nottarget,1,0.433
8140,SupervisedSparse,nottarget,32,contr16,n,nottarget,1,0.389
8140,SupervisedSparse,nottarget,33,contr6,n,nottarget,1,0.379
8140,SupervisedSparse,nottarget,34,contr9,n,nottarget,1,0.36200000000000004
8140,SupervisedSparse,nottarget,35,catch6,n,nottarget,1,0.495
8140,SupervisedSparse,nottarget,36,catch2,n,nottarget,1,0.36200000000000004
8140,SupervisedSparse,target,37,test16,n,nottarget,0,0.35200000000000004
8140,SupervisedSparse,nottarget,38,catch4,n,nottarget,1,0.503
8140,SupervisedSparse,nottarget,39,contr5,n,nottarget,1,0.529
8140,SupervisedSparse,nottarget,40,contr12,n,nottarget,1,0.41600000000000004
8150,UnsupervisedDense,nottarget,1,catch5,n,nottarget,1,1.6640000000000001
8150,UnsupervisedDense,target,2,test13,x,target,1,1.3780000000000001
8150,UnsupervisedDense,nottarget,3,contr6,n,nottarget,1,0.9440000000000001
8150,UnsupervisedDense,nottarget,4,contr3,n,nottarget,1,0.958
8150,UnsupervisedDense,target,5,test4,x,target,1,0.501
8150,UnsupervisedDense,target,6,test6,x,target,1,0.853
8150,UnsupervisedDense,target,7,test9,x,target,1,0.888
8150,UnsupervisedDense,target,8,test15,x,target,1,1.185
8150,UnsupervisedDense,nottarget,9,catch1,n,nottarget,1,0.7340000000000001
8150,UnsupervisedDense,nottarget,10,contr4,n,nottarget,1,1.4240000000000002
8150,UnsupervisedDense,nottarget,11,contr16,n,nottarget,1,0.9790000000000001
8150,UnsupervisedDense,nottarget,12,contr14,n,nottarget,1,1.0959999999999999
8150,UnsupervisedDense,nottarget,13,contr7,n,nottarget,1,1.218
8150,UnsupervisedDense,target,14,test2,x,target,1,0.884
8150,UnsupervisedDense,target,15,test10,x,target,1,0.831
8150,UnsupervisedDense,target,16,test1,x,target,1,0.922
8150,UnsupervisedDense,nottarget,17,catch8,n,nottarget,1,0.6659999999999999
8150,UnsupervisedDense,target,18,test5,x,target,1,0.758
8150,UnsupervisedDense,target,19,test11,x,target,1,0.74
8150,UnsupervisedDense,nottarget,20,catch4,n,nottarget,1,0.484
8150,UnsupervisedDense,nottarget,21,catch7,n,nottarget,1,0.7659999999999999
8150,UnsupervisedDense,nottarget,22,contr8,n,nottarget,1,1.156
8150,UnsupervisedDense,target,23,test14,x,target,1,1.147
8150,UnsupervisedDense,nottarget,24,contr9,n,nottarget,1,0.769
8150,UnsupervisedDense,target,25,test3,x,target,1,0.935
8150,UnsupervisedDense,nottarget,26,contr5,n,nottarget,1,0.711
8150,UnsupervisedDense,nottarget,27,contr13,n,nottarget,1,1.143
8150,UnsupervisedDense,nottarget,28,contr11,n,nottarget,1,0.495
8150,UnsupervisedDense,nottarget,29,contr15,n,nottarget,1,0.377
8150,UnsupervisedDense,target,30,test8,x,target,1,0.63
8150,UnsupervisedDense,target,31,test16,x,target,1,0.65
8150,UnsupervisedDense,nottarget,32,catch6,n,nottarget,1,0.526
8150,UnsupervisedDense,nottarget,33,contr10,n,nottarget,1,1.173
8150,UnsupervisedDense,target,34,test12,x,target,1,0.597
8150,UnsupervisedDense,nottarget,35,contr12,n,nottarget,1,0.9359999999999999
8150,UnsupervisedDense,nottarget,36,contr2,n,nottarget,1,0.496
8150,UnsupervisedDense,nottarget,37,catch2,n,nottarget,1,0.883
8150,UnsupervisedDense,nottarget,38,contr1,n,nottarget,1,0.626
8150,UnsupervisedDense,target,39,test7,x,target,1,0.6709999999999999
8150,UnsupervisedDense,nottarget,40,catch3,n,nottarget,1,0.5870000000000001
8150,SupervisedSparse,target,1,test8,x,target,1,2.595
8150,SupervisedSparse,nottarget,2,catch4,n,nottarget,1,1.265
8150,SupervisedSparse,nottarget,3,contr7,x,target,0,1.97
8150,SupervisedSparse,nottarget,4,contr12,n,nottarget,1,0.865
8150,SupervisedSparse,nottarget,5,contr9,n,nottarget,1,0.8109999999999999
8150,SupervisedSparse,target,6,test7,x,target,1,1.008
8150,SupervisedSparse,target,7,test11,x,target,1,0.8440000000000001
8150,SupervisedSparse,nottarget,8,contr10,n,nottarget,1,0.84
8150,SupervisedSparse,nottarget,9,contr3,n,nottarget,1,0.6829999999999999
8150,SupervisedSparse,target,10,test5,x,target,1,0.797
8150,SupervisedSparse,nottarget,11,catch7,n,nottarget,1,0.715
8150,SupervisedSparse,nottarget,12,contr8,n,nottarget,1,0.8740000000000001
8150,SupervisedSparse,nottarget,13,contr14,n,nottarget,1,0.419
8150,SupervisedSparse,nottarget,14,contr2,n,nottarget,1,0.537
8150,SupervisedSparse,nottarget,15,catch2,n,nottarget,1,0.698
8150,SupervisedSparse,target,16,test14,x,target,1,0.529
8150,SupervisedSparse,nottarget,17,contr4,n,nottarget,1,0.9540000000000001
8150,SupervisedSparse,target,18,test13,x,target,1,1.626
8150,SupervisedSparse,target,19,test3,x,target,1,0.605
8150,SupervisedSparse,nottarget,20,contr13,n,nottarget,1,0.682
8150,SupervisedSparse,target,21,test9,x,target,1,1.003
8150,SupervisedSparse,target,22,test4,x,target,1,0.745
8150,SupervisedSparse,nottarget,23,catch6,n,nottarget,1,0.625
8150,SupervisedSparse,nottarget,24,contr1,n,nottarget,1,1.6440000000000001
8150,SupervisedSparse,target,25,test12,x,target,1,0.536
8150,SupervisedSparse,target,26,test15,x,target,1,1.3030000000000002
8150,SupervisedSparse,nottarget,27,contr5,n,nottarget,1,0.7759999999999999
8150,SupervisedSparse,target,28,test16,x,target,1,0.631
8150,SupervisedSparse,nottarget,29,contr6,n,nottarget,1,1.274
8150,SupervisedSparse,nottarget,30,contr16,n,nottarget,1,0.5489999999999999
8150,SupervisedSparse,target,31,test2,x,target,1,0.531
8150,SupervisedSparse,nottarget,32,catch8,n,nottarget,1,0.812
8150,SupervisedSparse,nottarget,33,catch1,n,nottarget,1,0.5379999999999999
8150,SupervisedSparse,target,34,test6,x,target,1,1.4480000000000002
8150,SupervisedSparse,nottarget,35,catch5,n,nottarget,1,0.596
8150,SupervisedSparse,nottarget,36,catch3,n,nottarget,1,0.57
8150,SupervisedSparse,nottarget,37,contr15,n,nottarget,1,1.4
8150,SupervisedSparse,target,38,test10,x,target,1,0.518
8150,SupervisedSparse,nottarget,39,contr11,n,nottarget,1,1.4140000000000001
8150,SupervisedSparse,target,40,test1,x,target,1,1.3619999999999999
8150,UnsupervisedSparse,nottarget,1,contr10,x,target,0,1.406
8150,UnsupervisedSparse,target,2,test5,x,target,1,0.98
8150,UnsupervisedSparse,nottarget,3,contr7,x,target,0,0.625
8150,UnsupervisedSparse,nottarget,4,contr12,x,target,0,1.038
8150,UnsupervisedSparse,nottarget,5,contr2,n,nottarget,1,2.0580000000000003
8150,UnsupervisedSparse,target,6,test9,x,target,1,1.2830000000000001
8150,UnsupervisedSparse,target,7,test3,x,target,1,0.91
8150,UnsupervisedSparse,nottarget,8,catch1,n,nottarget,1,1.1740000000000002
8150,UnsupervisedSparse,nottarget,9,catch7,n,nottarget,1,0.948
8150,UnsupervisedSparse,target,10,test16,x,target,1,0.635
8150,UnsupervisedSparse,target,11,test6,x,target,1,1.015
8150,UnsupervisedSparse,target,12,test13,x,target,1,0.628
8150,UnsupervisedSparse,target,13,test12,x,target,1,0.743
8150,UnsupervisedSparse,nottarget,14,contr9,n,nottarget,1,1.7830000000000001
8150,UnsupervisedSparse,nottarget,15,contr1,n,nottarget,1,1.636
8150,UnsupervisedSparse,nottarget,16,contr13,x,target,0,1.696
8150,UnsupervisedSparse,target,17,test2,x,target,1,0.745
8150,UnsupervisedSparse,nottarget,18,contr8,x,target,0,0.425
8150,UnsupervisedSparse,nottarget,19,contr15,x,target,0,0.405
8150,UnsupervisedSparse,nottarget,20,contr5,x,target,0,0.586
8150,UnsupervisedSparse,nottarget,21,contr4,x,target,0,0.48100000000000004
8150,UnsupervisedSparse,nottarget,22,contr16,x,target,0,0.33899999999999997
8150,UnsupervisedSparse,target,23,test11,x,target,1,0.682
8150,UnsupervisedSparse,nottarget,24,contr11,x,target,0,0.773
8150,UnsupervisedSparse,target,25,test4,x,target,1,1.899
8150,UnsupervisedSparse,target,26,test14,x,target,1,0.74
8150,UnsupervisedSparse,nottarget,27,catch2,n,nottarget,1,0.723
8150,UnsupervisedSparse,nottarget,28,catch6,n,nottarget,1,0.618
8150,UnsupervisedSparse,nottarget,29,catch5,n,nottarget,1,0.632
8150,UnsupervisedSparse,nottarget,30,catch8,n,nottarget,1,0.7170000000000001
8150,UnsupervisedSparse,target,31,test8,n,nottarget,0,0.516
8150,UnsupervisedSparse,target,32,test15,x,target,1,0.485
8150,UnsupervisedSparse,nottarget,33,contr6,x,target,0,0.664
8150,UnsupervisedSparse,nottarget,34,contr14,x,target,0,0.425
8150,UnsupervisedSparse,nottarget,35,catch4,n,nottarget,1,0.5670000000000001
8150,UnsupervisedSparse,nottarget,36,catch3,n,nottarget,1,0.9009999999999999
8150,UnsupervisedSparse,target,37,test1,x,target,1,0.7809999999999999
8150,UnsupervisedSparse,target,38,test7,x,target,1,0.653
8150,UnsupervisedSparse,target,39,test10,x,target,1,0.47200000000000003
8150,UnsupervisedSparse,nottarget,40,contr3,x,target,0,0.53
8150,SupervisedDense,target,1,test10,x,target,1,3.884
8150,SupervisedDense,nottarget,2,contr13,n,nottarget,1,1.197
8150,SupervisedDense,nottarget,3,catch1,n,nottarget,1,0.993
8150,SupervisedDense,target,4,test16,x,target,1,1.1179999999999999
8150,SupervisedDense,target,5,test6,x,target,1,0.855
8150,SupervisedDense,nottarget,6,catch2,n,nottarget,1,0.6659999999999999
8150,SupervisedDense,target,7,test13,x,target,1,1.061
8150,SupervisedDense,nottarget,8,contr3,n,nottarget,1,0.703
8150,SupervisedDense,nottarget,9,contr5,n,nottarget,1,0.49700000000000005
8150,SupervisedDense,nottarget,10,catch6,n,nottarget,1,0.6729999999999999
8150,SupervisedDense,target,11,test2,x,target,1,0.74
8150,SupervisedDense,nottarget,12,catch8,n,nottarget,1,0.563
8150,SupervisedDense,target,13,test5,x,target,1,1.105
8150,SupervisedDense,nottarget,14,contr16,n,nottarget,1,0.5539999999999999
8150,SupervisedDense,target,15,test3,x,target,1,0.747
8150,SupervisedDense,target,16,test1,x,target,1,0.594
8150,SupervisedDense,nottarget,17,catch3,n,nottarget,1,0.495
8150,SupervisedDense,nottarget,18,contr1,n,nottarget,1,0.72
8150,SupervisedDense,nottarget,19,contr7,n,nottarget,1,0.5770000000000001
8150,SupervisedDense,nottarget,20,contr12,n,nottarget,1,0.384
8150,SupervisedDense,nottarget,21,contr6,n,nottarget,1,0.359
8150,SupervisedDense,nottarget,22,catch4,n,nottarget,1,0.58
8150,SupervisedDense,target,23,test12,x,target,1,0.41
8150,SupervisedDense,target,24,test9,x,target,1,0.431
8150,SupervisedDense,target,25,test11,x,target,1,0.45799999999999996
8150,SupervisedDense,nottarget,26,catch7,n,nottarget,1,0.455
8150,SupervisedDense,nottarget,27,contr2,n,nottarget,1,0.657
8150,SupervisedDense,nottarget,28,contr11,n,nottarget,1,0.478
8150,SupervisedDense,target,29,test14,x,target,1,0.414
8150,SupervisedDense,target,30,test7,x,target,1,0.57
8150,SupervisedDense,nottarget,31,contr10,n,nottarget,1,0.5379999999999999
8150,SupervisedDense,nottarget,32,contr4,n,nottarget,1,0.465
8150,SupervisedDense,nottarget,33,contr8,n,nottarget,1,0.49200000000000005
8150,SupervisedDense,nottarget,34,catch5,n,nottarget,1,0.598
8150,SupervisedDense,nottarget,35,contr15,n,nottarget,1,0.57
8150,SupervisedDense,nottarget,36,contr9,n,nottarget,1,0.57
8150,SupervisedDense,nottarget,37,contr14,n,nottarget,1,0.44
8150,SupervisedDense,target,38,test4,x,target,1,0.452
8150,SupervisedDense,target,39,test15,x,target,1,0.46299999999999997
8150,SupervisedDense,target,40,test8,x,target,1,0.48200000000000004
8091,SupervisedDense,nottarget,1,contr6,n,nottarget,1,1.63
8091,SupervisedDense,nottarget,2,contr5,n,nottarget,1,1.33
8091,SupervisedDense,nottarget,3,contr2,n,nottarget,1,0.754
8091,SupervisedDense,nottarget,4,catch2,n,nottarget,1,1.4580000000000002
8091,SupervisedDense,target,5,test9,x,target,1,1.2830000000000001
8091,SupervisedDense,target,6,test10,x,target,1,0.66
8091,SupervisedDense,nottarget,7,contr1,n,nottarget,1,0.56
8091,SupervisedDense,nottarget,8,contr11,n,nottarget,1,0.382
8091,SupervisedDense,nottarget,9,contr7,n,nottarget,1,0.42100000000000004
8091,SupervisedDense,target,10,test16,x,target,1,0.547
8091,SupervisedDense,target,11,test13,x,target,1,0.777
8091,SupervisedDense,target,12,test15,x,target,1,0.446
8091,SupervisedDense,nottarget,13,catch6,n,nottarget,1,0.603
8091,SupervisedDense,nottarget,14,contr16,n,nottarget,1,0.583
8091,SupervisedDense,nottarget,15,catch5,n,nottarget,1,0.43700000000000006
8091,SupervisedDense,nottarget,16,contr12,n,nottarget,1,0.37
8091,SupervisedDense,nottarget,17,contr13,n,nottarget,1,0.369
8091,SupervisedDense,target,18,test8,x,target,1,0.7190000000000001
8091,SupervisedDense,nottarget,19,contr14,n,nottarget,1,0.8809999999999999
8091,SupervisedDense,nottarget,20,catch3,n,nottarget,1,0.442
8091,SupervisedDense,nottarget,21,contr10,n,nottarget,1,0.613
8091,SupervisedDense,target,22,test7,x,target,1,0.5539999999999999
8091,SupervisedDense,nottarget,23,contr3,n,nottarget,1,0.36
8091,SupervisedDense,target,24,test11,x,target,1,1.0
8091,SupervisedDense,target,25,test6,x,target,1,0.7979999999999999
8091,SupervisedDense,target,26,test12,x,target,1,0.586
8091,SupervisedDense,target,27,test1,x,target,1,0.46399999999999997
8091,SupervisedDense,nottarget,28,contr15,n,nottarget,1,0.555
8091,SupervisedDense,target,29,test4,x,target,1,0.665
8091,SupervisedDense,target,30,test14,x,target,1,0.517
8091,SupervisedDense,target,31,test2,x,target,1,0.397
8091,SupervisedDense,nottarget,32,catch4,n,nottarget,1,0.442
8091,SupervisedDense,nottarget,33,catch1,n,nottarget,1,0.43700000000000006
8091,SupervisedDense,nottarget,34,catch7,n,nottarget,1,0.39299999999999996
8091,SupervisedDense,target,35,test5,x,target,1,0.591
8091,SupervisedDense,target,36,test3,x,target,1,0.5710000000000001
8091,SupervisedDense,nottarget,37,contr4,n,nottarget,1,0.547
8091,SupervisedDense,nottarget,38,contr9,n,nottarget,1,0.45799999999999996
8091,SupervisedDense,nottarget,39,catch8,n,nottarget,1,0.40399999999999997
8091,SupervisedDense,nottarget,40,contr8,n,nottarget,1,0.665
8091,SupervisedSparse,target,1,test9,x,target,1,1.886
8091,SupervisedSparse,target,2,test15,x,target,1,0.439
8091,SupervisedSparse,target,3,test8,x,target,1,0.363
8091,SupervisedSparse,nottarget,4,catch6,n,nottarget,1,0.435
8091,SupervisedSparse,nottarget,5,catch5,n,nottarget,1,0.526
8091,SupervisedSparse,nottarget,6,contr4,x,target,0,0.6779999999999999
8091,SupervisedSparse,nottarget,7,contr15,x,target,0,0.696
8091,SupervisedSparse,target,8,test1,x,target,1,0.408
8091,SupervisedSparse,target,9,test4,x,target,1,0.389
8091,SupervisedSparse,nottarget,10,catch7,x,target,0,0.0
8091,SupervisedSparse,nottarget,11,contr9,x,target,0,0.753
8091,SupervisedSparse,nottarget,12,contr14,x,target,0,0.609
8091,SupervisedSparse,nottarget,13,contr7,x,target,0,0.39799999999999996
8091,SupervisedSparse,nottarget,14,contr8,x,target,0,0.452
8091,SupervisedSparse,target,15,test7,x,target,1,0.742
8091,SupervisedSparse,nottarget,16,catch4,n,nottarget,1,0.893
8091,SupervisedSparse,nottarget,17,contr16,x,target,0,0.6459999999999999
8091,SupervisedSparse,target,18,test14,x,target,1,0.474
8091,SupervisedSparse,target,19,test12,x,target,1,0.364
8091,SupervisedSparse,target,20,test3,x,target,1,0.371
8091,SupervisedSparse,nottarget,21,contr11,x,target,0,0.593
8091,SupervisedSparse,nottarget,22,contr12,x,target,0,0.614
8091,SupervisedSparse,nottarget,23,contr1,x,target,0,0.387
8091,SupervisedSparse,target,24,test2,x,target,1,0.385
8091,SupervisedSparse,nottarget,25,contr3,x,target,0,0.6629999999999999
8091,SupervisedSparse,target,26,test13,x,target,1,0.8909999999999999
8091,SupervisedSparse,nottarget,27,catch1,n,nottarget,1,0.531
8091,SupervisedSparse,nottarget,28,catch8,n,nottarget,1,0.611
8091,SupervisedSparse,nottarget,29,contr2,x,target,0,0.705
8091,SupervisedSparse,target,30,test11,x,target,1,0.529
8091,SupervisedSparse,nottarget,31,catch3,n,nottarget,1,0.61
8091,SupervisedSparse,nottarget,32,contr6,x,target,0,0.503
8091,SupervisedSparse,target,33,test16,x,target,1,0.615
8091,SupervisedSparse,target,34,test10,x,target,1,0.644
8091,SupervisedSparse,nottarget,35,contr13,x,target,0,0.664
8091,SupervisedSparse,target,36,test5,x,target,1,0.5539999999999999
8091,SupervisedSparse,nottarget,37,contr5,x,target,0,0.77
8091,SupervisedSparse,target,38,test6,x,target,1,0.544
8091,SupervisedSparse,nottarget,39,contr10,x,target,0,0.439
8091,SupervisedSparse,nottarget,40,catch2,n,nottarget,1,0.563
8091,UnsupervisedSparse,nottarget,1,contr5,n,nottarget,1,1.9369999999999998
8091,UnsupervisedSparse,nottarget,2,contr11,n,nottarget,1,1.105
8091,UnsupervisedSparse,target,3,test13,x,target,1,0.593
8091,UnsupervisedSparse,nottarget,4,contr4,n,nottarget,1,1.208
8091,UnsupervisedSparse,nottarget,5,catch6,n,nottarget,1,0.659
8091,UnsupervisedSparse,target,6,test12,x,target,1,0.799
8091,UnsupervisedSparse,target,7,test10,x,target,1,1.6030000000000002
8091,UnsupervisedSparse,nottarget,8,contr13,x,target,0,1.072
8091,UnsupervisedSparse,nottarget,9,catch2,n,nottarget,1,0.547
8091,UnsupervisedSparse,nottarget,10,contr7,x,target,0,0.6729999999999999
8091,UnsupervisedSparse,nottarget,11,contr10,x,target,0,0.652
8091,UnsupervisedSparse,nottarget,12,catch7,n,nottarget,1,0.5429999999999999
8091,UnsupervisedSparse,nottarget,13,catch1,n,nottarget,1,0.6459999999999999
8091,UnsupervisedSparse,nottarget,14,catch8,n,nottarget,1,0.474
8091,UnsupervisedSparse,target,15,test4,x,target,1,0.485
8091,UnsupervisedSparse,nottarget,16,catch4,n,nottarget,1,0.446
8091,UnsupervisedSparse,target,17,test2,x,target,1,0.5539999999999999
8091,UnsupervisedSparse,target,18,test11,x,target,1,0.474
8091,UnsupervisedSparse,target,19,test3,x,target,1,0.46
8091,UnsupervisedSparse,nottarget,20,contr14,x,target,0,0.525
8091,UnsupervisedSparse,nottarget,21,contr9,x,target,0,0.583
8091,UnsupervisedSparse,target,22,test6,x,target,1,0.485
8091,UnsupervisedSparse,nottarget,23,contr2,x,target,0,0.502
8091,UnsupervisedSparse,target,24,test5,x,target,1,0.46399999999999997
8091,UnsupervisedSparse,target,25,test1,x,target,1,0.45899999999999996
8091,UnsupervisedSparse,target,26,test7,x,target,1,0.461
8091,UnsupervisedSparse,nottarget,27,catch5,n,nottarget,1,0.688
8091,UnsupervisedSparse,nottarget,28,contr8,x,target,0,0.562
8091,UnsupervisedSparse,nottarget,29,contr6,x,target,0,0.64
8091,UnsupervisedSparse,target,30,test14,x,target,1,0.532
8091,UnsupervisedSparse,target,31,test15,x,target,1,0.645
8091,UnsupervisedSparse,target,32,test9,x,target,1,0.488
8091,UnsupervisedSparse,nottarget,33,contr12,x,target,0,0.418
8091,UnsupervisedSparse,nottarget,34,contr3,x,target,0,0.391
8091,UnsupervisedSparse,target,35,test16,x,target,1,0.419
8091,UnsupervisedSparse,nottarget,36,contr15,x,target,0,0.4
8091,UnsupervisedSparse,nottarget,37,contr16,x,target,0,0.406
8091,UnsupervisedSparse,nottarget,38,catch3,n,nottarget,1,0.875
8091,UnsupervisedSparse,nottarget,39,contr1,x,target,0,0.55
8091,UnsupervisedSparse,target,40,test8,x,target,1,0.956
8091,UnsupervisedDense,nottarget,1,contr1,n,nottarget,1,1.089
8091,UnsupervisedDense,target,2,test9,x,target,1,0.585
8091,UnsupervisedDense,nottarget,3,catch2,n,nottarget,1,0.5589999999999999
8091,UnsupervisedDense,target,4,test6,x,target,1,0.5329999999999999
8091,UnsupervisedDense,target,5,test10,x,target,1,0.485
8091,UnsupervisedDense,nottarget,6,contr6,n,nottarget,1,0.5670000000000001
8091,UnsupervisedDense,nottarget,7,contr4,n,nottarget,1,0.6459999999999999
8091,UnsupervisedDense,nottarget,8,contr2,n,nottarget,1,0.401
8091,UnsupervisedDense,target,9,test5,n,nottarget,0,0.43
8091,UnsupervisedDense,target,10,test1,x,target,1,0.48200000000000004
8091,UnsupervisedDense,nottarget,11,catch8,n,nottarget,1,0.523
8091,UnsupervisedDense,target,12,test7,x,target,1,0.851
8091,UnsupervisedDense,target,13,test16,x,target,1,0.496
8091,UnsupervisedDense,target,14,test14,x,target,1,0.462
8091,UnsupervisedDense,target,15,test8,x,target,1,0.41
8091,UnsupervisedDense,target,16,test11,x,target,1,0.39
8091,UnsupervisedDense,nottarget,17,catch4,n,nottarget,1,0.682
8091,UnsupervisedDense,nottarget,18,contr16,n,nottarget,1,0.733
8091,UnsupervisedDense,nottarget,19,contr15,n,nottarget,1,0.7170000000000001
8091,UnsupervisedDense,nottarget,20,catch3,n,nottarget,1,0.565
8091,UnsupervisedDense,nottarget,21,contr12,n,nottarget,1,0.46799999999999997
8091,UnsupervisedDense,nottarget,22,contr10,n,nottarget,1,0.439
8091,UnsupervisedDense,nottarget,23,contr8,n,nottarget,1,0.39399999999999996
8091,UnsupervisedDense,nottarget,24,catch1,n,nottarget,1,0.528
8091,UnsupervisedDense,target,25,test2,x,target,1,0.5429999999999999
8091,UnsupervisedDense,target,26,test15,x,target,1,0.605
8091,UnsupervisedDense,nottarget,27,contr13,n,nottarget,1,0.8029999999999999
8091,UnsupervisedDense,nottarget,28,contr11,n,nottarget,1,0.713
8091,UnsupervisedDense,nottarget,29,catch5,n,nottarget,1,0.648
8091,UnsupervisedDense,nottarget,30,contr9,n,nottarget,1,0.46
8091,UnsupervisedDense,target,31,test3,x,target,1,0.527
8091,UnsupervisedDense,nottarget,32,catch6,n,nottarget,1,0.654
8091,UnsupervisedDense,target,33,test4,x,target,1,0.8420000000000001
8091,UnsupervisedDense,nottarget,34,contr3,n,nottarget,1,0.645
8091,UnsupervisedDense,nottarget,35,catch7,n,nottarget,1,0.831
8091,UnsupervisedDense,target,36,test13,x,target,1,0.596
8091,UnsupervisedDense,nottarget,37,contr5,n,nottarget,1,0.5539999999999999
8091,UnsupervisedDense,nottarget,38,contr14,n,nottarget,1,0.848
8091,UnsupervisedDense,target,39,test12,x,target,1,0.7070000000000001
8091,UnsupervisedDense,nottarget,40,contr7,n,nottarget,1,0.532
8123,UnsupervisedSparse,target,1,test5,x,target,1,2.265
8123,UnsupervisedSparse,nottarget,2,contr4,x,target,0,1.771
8123,UnsupervisedSparse,target,3,test8,x,target,1,2.843
8123,UnsupervisedSparse,nottarget,4,contr5,n,nottarget,1,1.74
8123,UnsupervisedSparse,nottarget,5,contr2,x,target,0,1.194
8123,UnsupervisedSparse,nottarget,6,catch4,n,nottarget,1,1.2329999999999999
8123,UnsupervisedSparse,nottarget,7,catch3,n,nottarget,1,1.092
8123,UnsupervisedSparse,nottarget,8,contr10,x,target,0,0.909
8123,UnsupervisedSparse,target,9,test3,x,target,1,0.534
8123,UnsupervisedSparse,nottarget,10,catch2,n,nottarget,1,0.741
8123,UnsupervisedSparse,nottarget,11,contr16,x,target,0,0.693
8123,UnsupervisedSparse,target,12,test10,x,target,1,0.727
8123,UnsupervisedSparse,nottarget,13,catch7,n,nottarget,1,0.598
8123,UnsupervisedSparse,target,14,test11,x,target,1,0.612
8123,UnsupervisedSparse,target,15,test4,x,target,1,0.49700000000000005
8123,UnsupervisedSparse,nottarget,16,contr8,x,target,0,0.682
8123,UnsupervisedSparse,target,17,test7,x,target,1,0.45299999999999996
8123,UnsupervisedSparse,nottarget,18,contr7,x,target,0,0.449
8123,UnsupervisedSparse,nottarget,19,catch1,n,nottarget,1,0.6509999999999999
8123,UnsupervisedSparse,nottarget,20,contr11,x,target,0,0.527
8123,UnsupervisedSparse,nottarget,21,catch8,n,nottarget,1,0.551
8123,UnsupervisedSparse,target,22,test1,x,target,1,0.638
8123,UnsupervisedSparse,target,23,test9,x,target,1,0.579
8123,UnsupervisedSparse,nottarget,24,contr6,x,target,0,0.521
8123,UnsupervisedSparse,target,25,test16,x,target,1,0.5770000000000001
8123,UnsupervisedSparse,nottarget,26,catch6,n,nottarget,1,0.696
8123,UnsupervisedSparse,nottarget,27,contr1,x,target,0,2.818
8123,UnsupervisedSparse,nottarget,28,contr9,x,target,0,1.3259999999999998
8123,UnsupervisedSparse,target,29,test13,x,target,1,0.7240000000000001
8123,UnsupervisedSparse,nottarget,30,contr15,x,target,0,0.7959999999999999
8123,UnsupervisedSparse,nottarget,31,contr14,x,target,0,0.57
8123,UnsupervisedSparse,nottarget,32,contr12,x,target,0,0.46399999999999997
8123,UnsupervisedSparse,target,33,test12,x,target,1,0.539
8123,UnsupervisedSparse,target,34,test6,x,target,1,0.8109999999999999
8123,UnsupervisedSparse,target,35,test2,x,target,1,0.711
8123,UnsupervisedSparse,nottarget,36,contr3,x,target,0,0.527
8123,UnsupervisedSparse,target,37,test15,x,target,1,0.569
8123,UnsupervisedSparse,target,38,test14,x,target,1,0.48700000000000004
8123,UnsupervisedSparse,nottarget,39,catch5,n,nottarget,1,0.618
8123,UnsupervisedSparse,nottarget,40,contr13,x,target,0,0.767
8123,UnsupervisedDense,target,1,test2,x,target,1,1.7080000000000002
8123,UnsupervisedDense,nottarget,2,contr4,None,None,0,9999.0
8123,UnsupervisedDense,target,3,test7,x,target,1,0.7290000000000001
8123,UnsupervisedDense,nottarget,4,contr5,x,target,0,1.335
8123,UnsupervisedDense,nottarget,5,contr16,n,nottarget,1,1.048
8123,UnsupervisedDense,target,6,test12,x,target,1,1.123
8123,UnsupervisedDense,nottarget,7,contr6,n,nottarget,1,0.987
8123,UnsupervisedDense,nottarget,8,catch1,n,nottarget,1,1.136
8123,UnsupervisedDense,target,9,test16,x,target,1,0.6859999999999999
8123,UnsupervisedDense,nottarget,10,contr8,x,target,0,0.65
8123,UnsupervisedDense,target,11,test10,x,target,1,0.58
8123,UnsupervisedDense,target,12,test6,x,target,1,0.696
8123,UnsupervisedDense,nottarget,13,contr7,x,target,0,1.7790000000000001
8123,UnsupervisedDense,nottarget,14,catch2,n,nottarget,1,0.607
8123,UnsupervisedDense,nottarget,15,catch7,n,nottarget,1,0.6759999999999999
8123,UnsupervisedDense,nottarget,16,contr2,x,target,0,0.7020000000000001
8123,UnsupervisedDense,nottarget,17,catch3,n,nottarget,1,0.478
8123,UnsupervisedDense,target,18,test5,x,target,1,0.608
8123,UnsupervisedDense,target,19,test14,x,target,1,0.516
8123,UnsupervisedDense,nottarget,20,catch6,n,nottarget,1,0.565
8123,UnsupervisedDense,nottarget,21,catch8,n,nottarget,1,0.435
8123,UnsupervisedDense,nottarget,22,catch5,n,nottarget,1,0.816
8123,UnsupervisedDense,target,23,test1,x,target,1,0.6579999999999999
8123,UnsupervisedDense,nottarget,24,catch4,n,nottarget,1,0.445
8123,UnsupervisedDense,nottarget,25,contr10,x,target,0,1.7369999999999999
8123,UnsupervisedDense,nottarget,26,contr15,x,target,0,0.6559999999999999
8123,UnsupervisedDense,target,27,test3,x,target,1,0.738
8123,UnsupervisedDense,nottarget,28,contr14,x,target,0,0.578
8123,UnsupervisedDense,nottarget,29,contr9,x,target,0,0.759
8123,UnsupervisedDense,target,30,test8,x,target,1,0.902
8123,UnsupervisedDense,nottarget,31,contr1,x,target,0,0.382
8123,UnsupervisedDense,nottarget,32,contr13,x,target,0,0.389
8123,UnsupervisedDense,target,33,test15,x,target,1,0.691
8123,UnsupervisedDense,target,34,test13,x,target,1,0.506
8123,UnsupervisedDense,target,35,test9,x,target,1,0.419
8123,UnsupervisedDense,target,36,test11,x,target,1,0.616
8123,UnsupervisedDense,nottarget,37,contr12,x,target,0,0.379
8123,UnsupervisedDense,nottarget,38,contr3,x,target,0,0.39399999999999996
8123,UnsupervisedDense,target,39,test4,x,target,1,0.34299999999999997
8123,UnsupervisedDense,nottarget,40,contr11,x,target,0,0.358
8123,SupervisedSparse,target,1,test6,x,target,1,2.464
8123,SupervisedSparse,nottarget,2,catch6,n,nottarget,1,1.01
8123,SupervisedSparse,nottarget,3,contr1,n,nottarget,1,0.6940000000000001
8123,SupervisedSparse,nottarget,4,contr4,n,nottarget,1,0.527
8123,SupervisedSparse,target,5,test13,x,target,1,0.608
8123,SupervisedSparse,nottarget,6,contr12,n,nottarget,1,0.6829999999999999
8123,SupervisedSparse,nottarget,7,contr13,n,nottarget,1,0.47
8123,SupervisedSparse,target,8,test11,x,target,1,0.585
8123,SupervisedSparse,target,9,test3,x,target,1,0.488
8123,SupervisedSparse,target,10,test15,x,target,1,0.6629999999999999
8123,SupervisedSparse,nottarget,11,contr14,n,nottarget,1,0.506
8123,SupervisedSparse,nottarget,12,contr8,n,nottarget,1,0.371
8123,SupervisedSparse,nottarget,13,catch3,n,nottarget,1,0.6890000000000001
8123,SupervisedSparse,target,14,test16,x,target,1,1.2590000000000001
8123,SupervisedSparse,nottarget,15,catch2,n,nottarget,1,0.638
8123,SupervisedSparse,nottarget,16,contr3,n,nottarget,1,0.7609999999999999
8123,SupervisedSparse,target,17,test14,x,target,1,0.593
8123,SupervisedSparse,target,18,test4,x,target,1,0.981
8123,SupervisedSparse,target,19,test12,x,target,1,0.45899999999999996
8123,SupervisedSparse,nottarget,20,contr6,n,nottarget,1,0.701
8123,SupervisedSparse,nottarget,21,catch5,n,nottarget,1,0.623
8123,SupervisedSparse,target,22,test7,x,target,1,0.8909999999999999
8123,SupervisedSparse,target,23,test10,x,target,1,0.564
8123,SupervisedSparse,target,24,test2,x,target,1,0.7859999999999999
8123,SupervisedSparse,nottarget,25,catch1,n,nottarget,1,0.529
8123,SupervisedSparse,nottarget,26,contr11,n,nottarget,1,0.945
8123,SupervisedSparse,nottarget,27,catch4,n,nottarget,1,0.5920000000000001
8123,SupervisedSparse,nottarget,28,contr2,n,nottarget,1,0.981
8123,SupervisedSparse,target,29,test5,x,target,1,1.114
8123,SupervisedSparse,target,30,test8,x,target,1,0.467
8123,SupervisedSparse,target,31,test1,x,target,1,0.478
8123,SupervisedSparse,nottarget,32,contr16,n,nottarget,1,0.527
8123,SupervisedSparse,nottarget,33,contr7,n,nottarget,1,0.447
8123,SupervisedSparse,nottarget,34,contr15,n,nottarget,1,0.386
8123,SupervisedSparse,nottarget,35,contr9,n,nottarget,1,0.39299999999999996
8123,SupervisedSparse,nottarget,36,catch8,n,nottarget,1,0.574
8123,SupervisedSparse,target,37,test9,x,target,1,0.524
8123,SupervisedSparse,nottarget,38,catch7,n,nottarget,1,0.46
8123,SupervisedSparse,nottarget,39,contr10,n,nottarget,1,0.557
8123,SupervisedSparse,nottarget,40,contr5,n,nottarget,1,0.396
8123,SupervisedDense,nottarget,1,contr8,n,nottarget,1,2.34
8123,SupervisedDense,target,2,test9,x,target,1,1.003
8123,SupervisedDense,target,3,test14,x,target,1,0.823
8123,SupervisedDense,target,4,test1,x,target,1,1.4509999999999998
8123,SupervisedDense,nottarget,5,contr15,n,nottarget,1,0.8540000000000001
8123,SupervisedDense,target,6,test2,x,target,1,0.9590000000000001
8123,SupervisedDense,target,7,test16,x,target,1,0.7909999999999999
8123,SupervisedDense,nottarget,8,contr3,n,nottarget,1,0.8290000000000001
8123,SupervisedDense,target,9,test10,x,target,1,0.76
8123,SupervisedDense,nottarget,10,catch2,n,nottarget,1,0.95
8123,SupervisedDense,target,11,test7,x,target,1,1.157
8123,SupervisedDense,nottarget,12,contr7,n,nottarget,1,0.643
8123,SupervisedDense,nottarget,13,contr11,n,nottarget,1,0.615
8123,SupervisedDense,nottarget,14,contr5,n,nottarget,1,0.706
8123,SupervisedDense,target,15,test6,x,target,1,0.6659999999999999
8123,SupervisedDense,nottarget,16,contr16,n,nottarget,1,1.061
8123,SupervisedDense,nottarget,17,contr4,n,nottarget,1,0.847
8123,SupervisedDense,nottarget,18,contr13,n,nottarget,1,0.45
8123,SupervisedDense,nottarget,19,contr6,n,nottarget,1,0.42100000000000004
8123,SupervisedDense,nottarget,20,contr1,n,nottarget,1,0.457
8123,SupervisedDense,nottarget,21,catch7,n,nottarget,1,0.588
8123,SupervisedDense,target,22,test15,x,target,1,0.768
8123,SupervisedDense,nottarget,23,contr12,n,nottarget,1,0.519
8123,SupervisedDense,nottarget,24,contr10,n,nottarget,1,0.687
8123,SupervisedDense,target,25,test3,x,target,1,0.552
8123,SupervisedDense,nottarget,26,contr2,n,nottarget,1,0.76
8123,SupervisedDense,nottarget,27,catch8,n,nottarget,1,0.551
8123,SupervisedDense,nottarget,28,catch6,n,nottarget,1,0.637
8123,SupervisedDense,target,29,test11,x,target,1,0.865
8123,SupervisedDense,target,30,test4,x,target,1,0.507
8123,SupervisedDense,target,31,test8,x,target,1,0.506
8123,SupervisedDense,target,32,test13,x,target,1,0.452
8123,SupervisedDense,nottarget,33,contr14,n,nottarget,1,0.52
8123,SupervisedDense,nottarget,34,catch1,n,nottarget,1,0.528
8123,SupervisedDense,nottarget,35,contr9,n,nottarget,1,0.504
8123,SupervisedDense,nottarget,36,catch5,n,nottarget,1,0.633
8123,SupervisedDense,target,37,test5,x,target,1,0.638
8123,SupervisedDense,nottarget,38,catch4,n,nottarget,1,0.561
8123,SupervisedDense,nottarget,39,catch3,n,nottarget,1,0.415
8123,SupervisedDense,target,40,test12,x,target,1,1.205
8058,SupervisedDense,nottarget,1,catch4,None,None,0,9999.0
8058,SupervisedDense,nottarget,2,contr5,n,nottarget,1,3.397
8058,SupervisedDense,target,3,test16,x,target,1,2.61
8058,SupervisedDense,nottarget,4,contr8,n,nottarget,1,1.31
8058,SupervisedDense,nottarget,5,contr1,n,nottarget,1,0.605
8058,SupervisedDense,target,6,test11,x,target,1,1.2819999999999998
8058,SupervisedDense,nottarget,7,contr2,n,nottarget,1,0.773
8058,SupervisedDense,nottarget,8,catch7,n,nottarget,1,0.6990000000000001
8058,SupervisedDense,nottarget,9,contr14,n,nottarget,1,0.9079999999999999
8058,SupervisedDense,target,10,test6,x,target,1,0.9309999999999999
8058,SupervisedDense,nottarget,11,contr10,n,nottarget,1,0.619
8058,SupervisedDense,target,12,test3,x,target,1,1.68
8058,SupervisedDense,nottarget,13,contr7,n,nottarget,1,0.594
8058,SupervisedDense,target,14,test5,x,target,1,1.319
8058,SupervisedDense,nottarget,15,contr9,n,nottarget,1,0.63
8058,SupervisedDense,target,16,test1,x,target,1,0.74
8058,SupervisedDense,nottarget,17,catch3,n,nottarget,1,0.9390000000000001
8058,SupervisedDense,target,18,test10,x,target,1,1.761
8058,SupervisedDense,target,19,test4,x,target,1,0.872
8058,SupervisedDense,target,20,test2,x,target,1,1.849
8058,SupervisedDense,target,21,test12,x,target,1,1.901
8058,SupervisedDense,nottarget,22,contr13,n,nottarget,1,0.9740000000000001
8058,SupervisedDense,target,23,test7,n,nottarget,0,3.674
8058,SupervisedDense,target,24,test14,n,nottarget,0,1.595
8058,SupervisedDense,nottarget,25,contr12,n,nottarget,1,1.5590000000000002
8058,SupervisedDense,nottarget,26,catch8,n,nottarget,1,2.285
8058,SupervisedDense,nottarget,27,contr16,n,nottarget,1,0.951
8058,SupervisedDense,target,28,test15,n,nottarget,0,3.4539999999999997
8058,SupervisedDense,nottarget,29,contr15,n,nottarget,1,1.255
8058,SupervisedDense,nottarget,30,catch2,n,nottarget,1,0.841
8058,SupervisedDense,target,31,test9,x,target,1,1.189
8058,SupervisedDense,nottarget,32,catch1,n,nottarget,1,0.778
8058,SupervisedDense,nottarget,33,contr4,n,nottarget,1,0.792
8058,SupervisedDense,target,34,test8,n,nottarget,0,2.2359999999999998
8058,SupervisedDense,target,35,test13,x,target,1,1.3519999999999999
8058,SupervisedDense,nottarget,36,contr3,n,nottarget,1,0.7340000000000001
8058,SupervisedDense,nottarget,37,contr11,n,nottarget,1,0.743
8058,SupervisedDense,nottarget,38,catch5,n,nottarget,1,0.615
8058,SupervisedDense,nottarget,39,contr6,n,nottarget,1,1.715
8058,SupervisedDense,nottarget,40,catch6,n,nottarget,1,0.555
8058,UnsupervisedDense,target,1,test7,x,target,1,2.037
8058,UnsupervisedDense,nottarget,2,contr4,n,nottarget,1,1.112
8058,UnsupervisedDense,target,3,test5,x,target,1,2.1519999999999997
8058,UnsupervisedDense,nottarget,4,catch7,n,nottarget,1,0.9259999999999999
8058,UnsupervisedDense,target,5,test16,x,target,1,1.038
8058,UnsupervisedDense,target,6,test3,x,target,1,1.13
8058,UnsupervisedDense,nottarget,7,catch1,n,nottarget,1,0.568
8058,UnsupervisedDense,nottarget,8,contr12,n,nottarget,1,0.7909999999999999
8058,UnsupervisedDense,nottarget,9,contr13,n,nottarget,1,0.532
8058,UnsupervisedDense,nottarget,10,contr3,n,nottarget,1,0.6509999999999999
8058,UnsupervisedDense,nottarget,11,contr10,n,nottarget,1,0.502
8058,UnsupervisedDense,target,12,test15,x,target,1,0.688
8058,UnsupervisedDense,target,13,test9,x,target,1,0.625
8058,UnsupervisedDense,nottarget,14,catch4,n,nottarget,1,0.557
8058,UnsupervisedDense,nottarget,15,catch2,n,nottarget,1,0.387
8058,UnsupervisedDense,nottarget,16,contr15,n,nottarget,1,0.631
8058,UnsupervisedDense,nottarget,17,contr7,n,nottarget,1,0.531
8058,UnsupervisedDense,target,18,test13,x,target,1,0.956
8058,UnsupervisedDense,nottarget,19,catch6,n,nottarget,1,1.169
8058,UnsupervisedDense,nottarget,20,contr16,n,nottarget,1,0.623
8058,UnsupervisedDense,target,21,test4,x,target,1,0.754
8058,UnsupervisedDense,nottarget,22,contr11,n,nottarget,1,0.746
8058,UnsupervisedDense,target,23,test10,x,target,1,1.168
8058,UnsupervisedDense,nottarget,24,catch3,n,nottarget,1,0.565
8058,UnsupervisedDense,nottarget,25,contr5,n,nottarget,1,0.9079999999999999
8058,UnsupervisedDense,target,26,test1,n,nottarget,0,0.499
8058,UnsupervisedDense,nottarget,27,catch8,n,nottarget,1,0.597
8058,UnsupervisedDense,target,28,test2,x,target,1,0.769
8058,UnsupervisedDense,nottarget,29,contr8,n,nottarget,1,0.76
8058,UnsupervisedDense,target,30,test8,x,target,1,0.8140000000000001
8058,UnsupervisedDense,nottarget,31,catch5,n,nottarget,1,0.642
8058,UnsupervisedDense,nottarget,32,contr2,n,nottarget,1,0.804
8058,UnsupervisedDense,nottarget,33,contr14,n,nottarget,1,0.513
8058,UnsupervisedDense,nottarget,34,contr1,n,nottarget,1,0.914
8058,UnsupervisedDense,target,35,test12,x,target,1,1.3780000000000001
8058,UnsupervisedDense,target,36,test6,x,target,1,0.8
8058,UnsupervisedDense,nottarget,37,contr9,n,nottarget,1,0.677
8058,UnsupervisedDense,target,38,test11,x,target,1,0.645
8058,UnsupervisedDense,target,39,test14,x,target,1,0.6970000000000001
8058,UnsupervisedDense,nottarget,40,contr6,n,nottarget,1,0.688
8058,SupervisedSparse,target,1,test12,x,target,1,2.51
8058,SupervisedSparse,nottarget,2,contr12,n,nottarget,1,0.79
8058,SupervisedSparse,target,3,test11,x,target,1,1.78
8058,SupervisedSparse,target,4,test15,x,target,1,0.872
8058,SupervisedSparse,nottarget,5,contr5,n,nottarget,1,0.491
8058,SupervisedSparse,target,6,test8,x,target,1,0.7
8058,SupervisedSparse,nottarget,7,contr11,n,nottarget,1,0.597
8058,SupervisedSparse,nottarget,8,contr8,n,nottarget,1,0.5870000000000001
8058,SupervisedSparse,nottarget,9,contr6,n,nottarget,1,0.4
8058,SupervisedSparse,nottarget,10,contr14,n,nottarget,1,0.35700000000000004
8058,SupervisedSparse,nottarget,11,catch7,n,nottarget,1,1.083
8058,SupervisedSparse,nottarget,12,contr16,n,nottarget,1,0.853
8058,SupervisedSparse,nottarget,13,contr10,n,nottarget,1,0.441
8058,SupervisedSparse,nottarget,14,catch1,n,nottarget,1,0.733
8058,SupervisedSparse,nottarget,15,catch2,n,nottarget,1,0.452
8058,SupervisedSparse,nottarget,16,contr15,n,nottarget,1,0.848
8058,SupervisedSparse,nottarget,17,contr13,n,nottarget,1,0.507
8058,SupervisedSparse,target,18,test4,x,target,1,0.618
8058,SupervisedSparse,nottarget,19,contr4,n,nottarget,1,0.528
8058,SupervisedSparse,target,20,test2,x,target,1,0.528
8058,SupervisedSparse,target,21,test10,x,target,1,0.855
8058,SupervisedSparse,nottarget,22,catch4,n,nottarget,1,0.523
8058,SupervisedSparse,target,23,test9,x,target,1,0.81
8058,SupervisedSparse,target,24,test1,x,target,1,0.6609999999999999
8058,SupervisedSparse,nottarget,25,contr2,n,nottarget,1,0.41
8058,SupervisedSparse,target,26,test6,x,target,1,1.2309999999999999
8058,SupervisedSparse,target,27,test3,x,target,1,0.841
8058,SupervisedSparse,nottarget,28,contr1,n,nottarget,1,0.605
8058,SupervisedSparse,nottarget,29,catch8,n,nottarget,1,0.841
8058,SupervisedSparse,target,30,test13,x,target,1,1.046
8058,SupervisedSparse,nottarget,31,contr9,n,nottarget,1,0.753
8058,SupervisedSparse,target,32,test5,x,target,1,0.743
8058,SupervisedSparse,target,33,test7,x,target,1,0.711
8058,SupervisedSparse,nottarget,34,catch3,n,nottarget,1,0.473
8058,SupervisedSparse,nottarget,35,catch6,n,nottarget,1,0.465
8058,SupervisedSparse,nottarget,36,contr7,n,nottarget,1,1.013
8058,SupervisedSparse,target,37,test16,x,target,1,0.6579999999999999
8058,SupervisedSparse,nottarget,38,catch5,n,nottarget,1,0.539
8058,SupervisedSparse,target,39,test14,x,target,1,0.795
8058,SupervisedSparse,nottarget,40,contr3,n,nottarget,1,0.583
8058,UnsupervisedSparse,nottarget,1,contr10,n,nottarget,1,1.6480000000000001
8058,UnsupervisedSparse,target,2,test2,x,target,1,1.0759999999999998
8058,UnsupervisedSparse,target,3,test13,x,target,1,0.973
8058,UnsupervisedSparse,target,4,test5,n,nottarget,0,2.324
8058,UnsupervisedSparse,nottarget,5,catch4,n,nottarget,1,1.187
8058,UnsupervisedSparse,target,6,test1,x,target,1,0.897
8058,UnsupervisedSparse,target,7,test4,x,target,1,0.802
8058,UnsupervisedSparse,target,8,test3,x,target,1,0.848
8058,UnsupervisedSparse,nottarget,9,contr13,n,nottarget,1,1.46
8058,UnsupervisedSparse,nottarget,10,contr2,n,nottarget,1,1.02
8058,UnsupervisedSparse,nottarget,11,contr5,n,nottarget,1,0.986
8058,UnsupervisedSparse,nottarget,12,catch6,n,nottarget,1,0.9670000000000001
8058,UnsupervisedSparse,nottarget,13,contr8,n,nottarget,1,1.95
8058,UnsupervisedSparse,target,14,test11,x,target,1,0.8370000000000001
8058,UnsupervisedSparse,nottarget,15,catch7,n,nottarget,1,0.762
8058,UnsupervisedSparse,nottarget,16,contr16,n,nottarget,1,0.865
8058,UnsupervisedSparse,nottarget,17,contr1,n,nottarget,1,2.042
8058,UnsupervisedSparse,nottarget,18,contr15,n,nottarget,1,1.6369999999999998
8058,UnsupervisedSparse,target,19,test10,x,target,1,1.3119999999999998
8058,UnsupervisedSparse,nottarget,20,catch1,n,nottarget,1,1.0979999999999999
8058,UnsupervisedSparse,nottarget,21,catch3,n,nottarget,1,1.3459999999999999
8058,UnsupervisedSparse,nottarget,22,contr14,n,nottarget,1,2.602
8058,UnsupervisedSparse,nottarget,23,contr6,n,nottarget,1,1.27
8058,UnsupervisedSparse,nottarget,24,catch5,n,nottarget,1,1.073
8058,UnsupervisedSparse,nottarget,25,contr7,n,nottarget,1,2.7960000000000003
8058,UnsupervisedSparse,target,26,test8,x,target,1,1.319
8058,UnsupervisedSparse,nottarget,27,contr4,n,nottarget,1,0.937
8058,UnsupervisedSparse,nottarget,28,catch8,n,nottarget,1,1.064
8058,UnsupervisedSparse,target,29,test12,x,target,1,0.8029999999999999
8058,UnsupervisedSparse,target,30,test6,x,target,1,0.657
8058,UnsupervisedSparse,nottarget,31,contr11,n,nottarget,1,0.987
8058,UnsupervisedSparse,target,32,test15,x,target,1,1.985
8058,UnsupervisedSparse,target,33,test9,x,target,1,0.846
8058,UnsupervisedSparse,nottarget,34,contr9,n,nottarget,1,0.882
8058,UnsupervisedSparse,target,35,test7,x,target,1,0.924
8058,UnsupervisedSparse,target,36,test14,n,nottarget,0,0.0
8058,UnsupervisedSparse,nottarget,37,contr12,n,nottarget,1,3.986
8058,UnsupervisedSparse,nottarget,38,contr3,n,nottarget,1,0.7340000000000001
8058,UnsupervisedSparse,target,39,test16,x,target,1,2.407
8058,UnsupervisedSparse,nottarget,40,catch2,n,nottarget,1,0.8909999999999999
8090,UnsupervisedSparse,nottarget,1,contr3,n,nottarget,1,2.889
8090,UnsupervisedSparse,target,2,test5,n,nottarget,0,2.8339999999999996
8090,UnsupervisedSparse,nottarget,3,contr4,n,nottarget,1,1.3259999999999998
8090,UnsupervisedSparse,nottarget,4,contr14,n,nottarget,1,1.189
8090,UnsupervisedSparse,nottarget,5,catch6,n,nottarget,1,1.2590000000000001
8090,UnsupervisedSparse,nottarget,6,catch5,n,nottarget,1,1.6840000000000002
8090,UnsupervisedSparse,target,7,test4,x,target,1,0.91
8090,UnsupervisedSparse,nottarget,8,contr11,x,target,0,2.966
8090,UnsupervisedSparse,target,9,test7,x,target,1,0.8540000000000001
8090,UnsupervisedSparse,target,10,test13,x,target,1,0.937
8090,UnsupervisedSparse,nottarget,11,contr8,n,nottarget,1,1.993
8090,UnsupervisedSparse,nottarget,12,catch4,n,nottarget,1,0.7090000000000001
8090,UnsupervisedSparse,nottarget,13,catch8,n,nottarget,1,0.6609999999999999
8090,UnsupervisedSparse,target,14,test1,x,target,1,0.856
8090,UnsupervisedSparse,target,15,test3,x,target,1,0.748
8090,UnsupervisedSparse,target,16,test16,x,target,1,0.635
8090,UnsupervisedSparse,target,17,test6,x,target,1,0.83
8090,UnsupervisedSparse,nottarget,18,contr13,None,None,0,9999.0
8090,UnsupervisedSparse,nottarget,19,contr9,n,nottarget,1,1.127
8090,UnsupervisedSparse,nottarget,20,contr1,n,nottarget,1,2.43
8090,UnsupervisedSparse,nottarget,21,contr6,n,nottarget,1,2.93
8090,UnsupervisedSparse,target,22,test10,x,target,1,2.481
8090,UnsupervisedSparse,nottarget,23,contr10,x,target,0,4.019
8090,UnsupervisedSparse,nottarget,24,catch1,n,nottarget,1,0.67
8090,UnsupervisedSparse,nottarget,25,contr7,x,target,0,0.785
8090,UnsupervisedSparse,nottarget,26,contr15,x,target,0,1.814
8090,UnsupervisedSparse,target,27,test11,x,target,1,0.643
8090,UnsupervisedSparse,target,28,test8,x,target,1,0.846
8090,UnsupervisedSparse,target,29,test9,x,target,1,0.81
8090,UnsupervisedSparse,target,30,test2,x,target,1,1.8780000000000001
8090,UnsupervisedSparse,nottarget,31,catch7,n,nottarget,1,0.6
8090,UnsupervisedSparse,nottarget,32,catch3,n,nottarget,1,0.397
8090,UnsupervisedSparse,target,33,test15,x,target,1,0.428
8090,UnsupervisedSparse,target,34,test14,x,target,1,1.079
8090,UnsupervisedSparse,nottarget,35,catch2,n,nottarget,1,2.233
8090,UnsupervisedSparse,target,36,test12,x,target,1,1.124
8090,UnsupervisedSparse,nottarget,37,contr2,x,target,0,0.948
8090,UnsupervisedSparse,nottarget,38,contr12,x,target,0,1.082
8090,UnsupervisedSparse,nottarget,39,contr5,x,target,0,0.669
8090,UnsupervisedSparse,nottarget,40,contr16,x,target,0,0.552
8090,SupervisedDense,nottarget,1,contr11,n,nottarget,1,2.522
8090,SupervisedDense,target,2,test12,x,target,1,1.298
8090,SupervisedDense,nottarget,3,contr6,n,nottarget,1,0.539
8090,SupervisedDense,target,4,test13,x,target,1,0.619
8090,SupervisedDense,nottarget,5,catch7,n,nottarget,1,1.023
8090,SupervisedDense,nottarget,6,contr14,n,nottarget,1,0.7
8090,SupervisedDense,nottarget,7,contr15,n,nottarget,1,0.973
8090,SupervisedDense,nottarget,8,contr10,n,nottarget,1,0.611
8090,SupervisedDense,target,9,test10,x,target,1,0.7509999999999999
8090,SupervisedDense,nottarget,10,contr9,n,nottarget,1,0.431
8090,SupervisedDense,nottarget,11,contr1,n,nottarget,1,0.498
8090,SupervisedDense,nottarget,12,catch8,n,nottarget,1,0.74
8090,SupervisedDense,target,13,test2,x,target,1,0.6920000000000001
8090,SupervisedDense,nottarget,14,contr12,n,nottarget,1,0.445
8090,SupervisedDense,target,15,test14,x,target,1,0.48
8090,SupervisedDense,target,16,test15,x,target,1,0.946
8090,SupervisedDense,target,17,test3,x,target,1,0.6890000000000001
8090,SupervisedDense,nottarget,18,contr13,n,nottarget,1,0.45
8090,SupervisedDense,nottarget,19,catch6,n,nottarget,1,0.6859999999999999
8090,SupervisedDense,nottarget,20,catch2,n,nottarget,1,0.7040000000000001
8090,SupervisedDense,nottarget,21,catch5,n,nottarget,1,0.521
8090,SupervisedDense,target,22,test11,x,target,1,0.5870000000000001
8090,SupervisedDense,nottarget,23,catch3,n,nottarget,1,0.47200000000000003
8090,SupervisedDense,nottarget,24,contr16,n,nottarget,1,0.8809999999999999
8090,SupervisedDense,target,25,test5,x,target,1,0.98
8090,SupervisedDense,nottarget,26,contr3,n,nottarget,1,2.01
8090,SupervisedDense,target,27,test6,x,target,1,0.5579999999999999
8090,SupervisedDense,target,28,test9,x,target,1,0.588
8090,SupervisedDense,nottarget,29,contr8,n,nottarget,1,0.449
8090,SupervisedDense,nottarget,30,contr2,n,nottarget,1,0.389
8090,SupervisedDense,target,31,test7,x,target,1,0.466
8090,SupervisedDense,target,32,test1,x,target,1,0.542
8090,SupervisedDense,nottarget,33,contr4,n,nottarget,1,0.381
8090,SupervisedDense,target,34,test16,x,target,1,0.42
8090,SupervisedDense,nottarget,35,contr5,n,nottarget,1,0.5770000000000001
8090,SupervisedDense,target,36,test8,x,target,1,0.573
8090,SupervisedDense,target,37,test4,x,target,1,0.509
8090,SupervisedDense,nottarget,38,contr7,n,nottarget,1,0.7020000000000001
8090,SupervisedDense,nottarget,39,catch4,n,nottarget,1,0.525
8090,SupervisedDense,nottarget,40,catch1,n,nottarget,1,0.614
8090,SupervisedSparse,nottarget,1,contr5,n,nottarget,1,2.653
8090,SupervisedSparse,nottarget,2,contr13,n,nottarget,1,0.48700000000000004
8090,SupervisedSparse,target,3,test8,x,target,1,0.45799999999999996
8090,SupervisedSparse,target,4,test9,x,target,1,0.524
8090,SupervisedSparse,target,5,test4,x,target,1,1.0759999999999998
8090,SupervisedSparse,nottarget,6,contr15,n,nottarget,1,0.51
8090,SupervisedSparse,nottarget,7,catch5,n,nottarget,1,0.535
8090,SupervisedSparse,nottarget,8,catch8,n,nottarget,1,0.455
8090,SupervisedSparse,nottarget,9,catch6,n,nottarget,1,0.523
8090,SupervisedSparse,target,10,test5,x,target,1,0.42700000000000005
8090,SupervisedSparse,target,11,test13,x,target,1,0.63
8090,SupervisedSparse,nottarget,12,contr1,n,nottarget,1,0.44299999999999995
8090,SupervisedSparse,target,13,test11,x,target,1,0.654
8090,SupervisedSparse,nottarget,14,contr11,n,nottarget,1,0.953
8090,SupervisedSparse,nottarget,15,contr6,n,nottarget,1,0.904
8090,SupervisedSparse,target,16,test6,x,target,1,0.762
8090,SupervisedSparse,target,17,test1,x,target,1,0.409
8090,SupervisedSparse,target,18,test16,x,target,1,0.59
8090,SupervisedSparse,nottarget,19,contr10,n,nottarget,1,1.123
8090,SupervisedSparse,nottarget,20,contr7,n,nottarget,1,0.451
8090,SupervisedSparse,nottarget,21,contr4,n,nottarget,1,0.831
8090,SupervisedSparse,nottarget,22,catch1,n,nottarget,1,0.5379999999999999
8090,SupervisedSparse,target,23,test3,x,target,1,0.595
8090,SupervisedSparse,target,24,test12,x,target,1,0.736
8090,SupervisedSparse,nottarget,25,contr9,n,nottarget,1,0.46299999999999997
8090,SupervisedSparse,nottarget,26,catch3,n,nottarget,1,0.65
8090,SupervisedSparse,nottarget,27,catch4,n,nottarget,1,0.431
8090,SupervisedSparse,nottarget,28,contr3,x,target,0,0.474
8090,SupervisedSparse,nottarget,29,contr2,x,target,0,0.444
8090,SupervisedSparse,nottarget,30,catch2,n,nottarget,1,0.488
8090,SupervisedSparse,target,31,test2,x,target,1,0.73
8090,SupervisedSparse,nottarget,32,contr12,n,nottarget,1,0.6890000000000001
8090,SupervisedSparse,nottarget,33,contr14,n,nottarget,1,0.8759999999999999
8090,SupervisedSparse,target,34,test7,x,target,1,0.542
8090,SupervisedSparse,nottarget,35,contr16,x,target,0,2.053
8090,SupervisedSparse,target,36,test14,x,target,1,0.664
8090,SupervisedSparse,nottarget,37,contr8,n,nottarget,1,1.026
8090,SupervisedSparse,target,38,test15,x,target,1,0.40700000000000003
8090,SupervisedSparse,target,39,test10,x,target,1,0.41100000000000003
8090,SupervisedSparse,nottarget,40,catch7,n,nottarget,1,0.375
8090,UnsupervisedDense,nottarget,1,contr4,n,nottarget,1,4.209
8090,UnsupervisedDense,target,2,test13,x,target,1,0.924
8090,UnsupervisedDense,target,3,test11,x,target,1,0.516
8090,UnsupervisedDense,target,4,test16,x,target,1,0.797
8090,UnsupervisedDense,target,5,test3,x,target,1,0.5770000000000001
8090,UnsupervisedDense,nottarget,6,contr5,n,nottarget,1,0.8640000000000001
8090,UnsupervisedDense,target,7,test5,x,target,1,0.529
8090,UnsupervisedDense,nottarget,8,contr10,n,nottarget,1,0.507
8090,UnsupervisedDense,target,9,test15,x,target,1,0.46799999999999997
8090,UnsupervisedDense,nottarget,10,contr3,n,nottarget,1,0.429
8090,UnsupervisedDense,target,11,test4,x,target,1,0.48
8090,UnsupervisedDense,nottarget,12,catch4,n,nottarget,1,1.043
8090,UnsupervisedDense,nottarget,13,contr8,n,nottarget,1,1.126
8090,UnsupervisedDense,nottarget,14,catch5,n,nottarget,1,0.647
8090,UnsupervisedDense,target,15,test9,x,target,1,0.85
8090,UnsupervisedDense,nottarget,16,contr12,n,nottarget,1,0.556
8090,UnsupervisedDense,target,17,test6,x,target,1,0.579
8090,UnsupervisedDense,nottarget,18,catch1,n,nottarget,1,0.584
8090,UnsupervisedDense,target,19,test2,x,target,1,0.7340000000000001
8090,UnsupervisedDense,nottarget,20,contr7,n,nottarget,1,0.782
8090,UnsupervisedDense,nottarget,21,contr9,n,nottarget,1,0.845
8090,UnsupervisedDense,nottarget,22,catch8,n,nottarget,1,0.727
8090,UnsupervisedDense,target,23,test10,x,target,1,0.526
8090,UnsupervisedDense,nottarget,24,catch3,n,nottarget,1,0.604
8090,UnsupervisedDense,nottarget,25,catch2,n,nottarget,1,0.619
8090,UnsupervisedDense,nottarget,26,catch6,n,nottarget,1,0.5589999999999999
8090,UnsupervisedDense,nottarget,27,contr13,x,target,0,0.5489999999999999
8090,UnsupervisedDense,nottarget,28,contr2,n,nottarget,1,0.909
8090,UnsupervisedDense,target,29,test12,n,nottarget,0,2.821
8090,UnsupervisedDense,nottarget,30,contr16,n,nottarget,1,0.8809999999999999
8090,UnsupervisedDense,nottarget,31,contr14,n,nottarget,1,0.5479999999999999
8090,UnsupervisedDense,target,32,test7,x,target,1,0.818
8090,UnsupervisedDense,nottarget,33,catch7,n,nottarget,1,1.024
8090,UnsupervisedDense,nottarget,34,contr15,n,nottarget,1,1.035
8090,UnsupervisedDense,nottarget,35,contr6,n,nottarget,1,0.599
8090,UnsupervisedDense,target,36,test14,x,target,1,0.9640000000000001
8090,UnsupervisedDense,nottarget,37,contr1,n,nottarget,1,0.5379999999999999
8090,UnsupervisedDense,target,38,test1,x,target,1,0.634
8090,UnsupervisedDense,target,39,test8,None,None,0,9999.0
8090,UnsupervisedDense,nottarget,40,contr11,n,nottarget,1,0.8809999999999999
8050,UnsupervisedDense,target,1,test11,x,target,1,1.182
8050,UnsupervisedDense,nottarget,2,contr3,n,nottarget,1,1.002
8050,UnsupervisedDense,target,3,test15,x,target,1,0.777
8050,UnsupervisedDense,nottarget,4,catch1,n,nottarget,1,1.0290000000000001
8050,UnsupervisedDense,nottarget,5,contr10,n,nottarget,1,0.961
8050,UnsupervisedDense,target,6,test9,x,target,1,0.639
8050,UnsupervisedDense,target,7,test2,x,target,1,0.529
8050,UnsupervisedDense,target,8,test8,x,target,1,0.682
8050,UnsupervisedDense,nottarget,9,contr4,n,nottarget,1,0.6829999999999999
8050,UnsupervisedDense,nottarget,10,contr12,n,nottarget,1,1.051
8050,UnsupervisedDense,nottarget,11,catch2,n,nottarget,1,0.495
8050,UnsupervisedDense,nottarget,12,catch6,n,nottarget,1,1.423
8050,UnsupervisedDense,nottarget,13,contr16,n,nottarget,1,1.099
8050,UnsupervisedDense,nottarget,14,contr7,n,nottarget,1,0.596
8050,UnsupervisedDense,nottarget,15,contr1,n,nottarget,1,0.5670000000000001
8050,UnsupervisedDense,target,16,test4,x,target,1,0.6940000000000001
8050,UnsupervisedDense,target,17,test14,x,target,1,0.40700000000000003
8050,UnsupervisedDense,nottarget,18,contr2,n,nottarget,1,0.562
8050,UnsupervisedDense,nottarget,19,contr15,n,nottarget,1,0.449
8050,UnsupervisedDense,target,20,test5,x,target,1,1.54
8050,UnsupervisedDense,nottarget,21,catch4,n,nottarget,1,1.675
8050,UnsupervisedDense,nottarget,22,contr9,n,nottarget,1,1.237
8050,UnsupervisedDense,nottarget,23,catch7,n,nottarget,1,1.127
8050,UnsupervisedDense,target,24,test12,x,target,1,0.759
8050,UnsupervisedDense,target,25,test13,x,target,1,0.6829999999999999
8050,UnsupervisedDense,nottarget,26,contr6,n,nottarget,1,0.654
8050,UnsupervisedDense,target,27,test16,x,target,1,0.6890000000000001
8050,UnsupervisedDense,nottarget,28,contr13,n,nottarget,1,0.897
8050,UnsupervisedDense,target,29,test7,x,target,1,1.338
8050,UnsupervisedDense,nottarget,30,catch5,n,nottarget,1,0.728
8050,UnsupervisedDense,nottarget,31,contr14,n,nottarget,1,1.8730000000000002
8050,UnsupervisedDense,nottarget,32,contr5,n,nottarget,1,0.721
8050,UnsupervisedDense,target,33,test10,x,target,1,0.314
8050,UnsupervisedDense,nottarget,34,contr8,n,nottarget,1,0.611
8050,UnsupervisedDense,target,35,test1,x,target,1,0.622
8050,UnsupervisedDense,nottarget,36,catch8,n,nottarget,1,0.29100000000000004
8050,UnsupervisedDense,nottarget,37,catch3,n,nottarget,1,0.428
8050,UnsupervisedDense,nottarget,38,contr11,x,target,0,0.447
8050,UnsupervisedDense,target,39,test3,x,target,1,0.737
8050,UnsupervisedDense,target,40,test6,x,target,1,0.833
8050,SupervisedDense,nottarget,1,catch7,n,nottarget,1,1.952
8050,SupervisedDense,target,2,test12,x,target,1,1.069
8050,SupervisedDense,target,3,test10,x,target,1,1.494
8050,SupervisedDense,nottarget,4,contr2,n,nottarget,1,2.447
8050,SupervisedDense,nottarget,5,contr6,n,nottarget,1,0.9440000000000001
8050,SupervisedDense,target,6,test1,x,target,1,0.64
8050,SupervisedDense,nottarget,7,contr10,n,nottarget,1,0.636
8050,SupervisedDense,nottarget,8,catch2,n,nottarget,1,0.759
8050,SupervisedDense,nottarget,9,contr14,n,nottarget,1,1.117
8050,SupervisedDense,nottarget,10,contr1,n,nottarget,1,0.669
8050,SupervisedDense,target,11,test4,x,target,1,0.76
8050,SupervisedDense,nottarget,12,contr16,n,nottarget,1,0.718
8050,SupervisedDense,target,13,test8,x,target,1,0.838
8050,SupervisedDense,target,14,test9,x,target,1,0.578
8050,SupervisedDense,nottarget,15,contr15,n,nottarget,1,0.904
8050,SupervisedDense,target,16,test3,x,target,1,0.624
8050,SupervisedDense,nottarget,17,contr8,n,nottarget,1,0.763
8050,SupervisedDense,nottarget,18,contr13,n,nottarget,1,1.338
8050,SupervisedDense,nottarget,19,contr12,n,nottarget,1,0.465
8050,SupervisedDense,target,20,test13,x,target,1,0.619
8050,SupervisedDense,nottarget,21,contr3,n,nottarget,1,0.695
8050,SupervisedDense,target,22,test11,x,target,1,0.424
8050,SupervisedDense,target,23,test2,x,target,1,0.524
8050,SupervisedDense,nottarget,24,contr4,n,nottarget,1,0.586
8050,SupervisedDense,nottarget,25,catch5,n,nottarget,1,0.5920000000000001
8050,SupervisedDense,nottarget,26,contr5,n,nottarget,1,0.645
8050,SupervisedDense,target,27,test14,x,target,1,0.35100000000000003
8050,SupervisedDense,target,28,test6,x,target,1,0.59
8050,SupervisedDense,nottarget,29,catch3,n,nottarget,1,0.9079999999999999
8050,SupervisedDense,nottarget,30,contr9,n,nottarget,1,0.8109999999999999
8050,SupervisedDense,nottarget,31,catch8,n,nottarget,1,0.68
8050,SupervisedDense,nottarget,32,catch6,n,nottarget,1,0.618
8050,SupervisedDense,target,33,test7,x,target,1,0.868
8050,SupervisedDense,target,34,test15,x,target,1,0.52
8050,SupervisedDense,target,35,test16,x,target,1,0.624
8050,SupervisedDense,nottarget,36,contr7,n,nottarget,1,0.691
8050,SupervisedDense,nottarget,37,catch4,n,nottarget,1,0.62
8050,SupervisedDense,nottarget,38,contr11,n,nottarget,1,0.6729999999999999
8050,SupervisedDense,target,39,test5,x,target,1,0.753
8050,SupervisedDense,nottarget,40,catch1,n,nottarget,1,0.6729999999999999
8050,SupervisedSparse,target,1,test1,x,target,1,3.096
8050,SupervisedSparse,nottarget,2,catch1,n,nottarget,1,1.161
8050,SupervisedSparse,target,3,test7,x,target,1,0.815
8050,SupervisedSparse,target,4,test15,x,target,1,0.963
8050,SupervisedSparse,nottarget,5,contr8,n,nottarget,1,1.119
8050,SupervisedSparse,target,6,test8,x,target,1,0.8320000000000001
8050,SupervisedSparse,nottarget,7,catch2,n,nottarget,1,0.645
8050,SupervisedSparse,target,8,test4,x,target,1,0.48700000000000004
8050,SupervisedSparse,nottarget,9,contr15,n,nottarget,1,0.385
8050,SupervisedSparse,nottarget,10,contr2,n,nottarget,1,0.39
8050,SupervisedSparse,nottarget,11,catch3,n,nottarget,1,0.978
8050,SupervisedSparse,target,12,test11,x,target,1,0.617
8050,SupervisedSparse,nottarget,13,contr7,n,nottarget,1,0.725
8050,SupervisedSparse,target,14,test14,x,target,1,1.46
8050,SupervisedSparse,nottarget,15,contr10,n,nottarget,1,1.166
8050,SupervisedSparse,nottarget,16,contr6,n,nottarget,1,0.524
8050,SupervisedSparse,nottarget,17,catch6,n,nottarget,1,0.444
8050,SupervisedSparse,target,18,test16,x,target,1,0.695
8050,SupervisedSparse,nottarget,19,contr14,n,nottarget,1,0.519
8050,SupervisedSparse,target,20,test10,x,target,1,1.319
8050,SupervisedSparse,nottarget,21,catch7,n,nottarget,1,0.5589999999999999
8050,SupervisedSparse,nottarget,22,contr13,n,nottarget,1,0.693
8050,SupervisedSparse,nottarget,23,contr4,n,nottarget,1,0.447
8050,SupervisedSparse,nottarget,24,contr16,n,nottarget,1,0.473
8050,SupervisedSparse,target,25,test13,x,target,1,0.636
8050,SupervisedSparse,nottarget,26,contr3,n,nottarget,1,0.504
8050,SupervisedSparse,nottarget,27,contr1,n,nottarget,1,0.473
8050,SupervisedSparse,target,28,test5,x,target,1,1.4180000000000001
8050,SupervisedSparse,nottarget,29,catch5,n,nottarget,1,0.623
8050,SupervisedSparse,nottarget,30,catch8,n,nottarget,1,0.747
8050,SupervisedSparse,nottarget,31,contr9,n,nottarget,1,0.762
8050,SupervisedSparse,target,32,test6,x,target,1,0.6
8050,SupervisedSparse,target,33,test12,x,target,1,0.5870000000000001
8050,SupervisedSparse,nottarget,34,contr5,n,nottarget,1,0.44299999999999995
8050,SupervisedSparse,nottarget,35,contr11,n,nottarget,1,0.485
8050,SupervisedSparse,nottarget,36,contr12,n,nottarget,1,0.511
8050,SupervisedSparse,target,37,test2,x,target,1,0.768
8050,SupervisedSparse,target,38,test3,x,target,1,0.951
8050,SupervisedSparse,target,39,test9,x,target,1,0.875
8050,SupervisedSparse,nottarget,40,catch4,n,nottarget,1,0.8140000000000001
8050,UnsupervisedSparse,nottarget,1,contr15,x,target,0,2.26
8050,UnsupervisedSparse,target,2,test6,n,nottarget,0,0.0
8050,UnsupervisedSparse,nottarget,3,contr1,x,target,0,0.902
8050,UnsupervisedSparse,target,4,test2,x,target,1,0.486
8050,UnsupervisedSparse,target,5,test11,x,target,1,0.46399999999999997
8050,UnsupervisedSparse,target,6,test16,x,target,1,0.6509999999999999
8050,UnsupervisedSparse,nottarget,7,catch4,n,nottarget,1,0.7659999999999999
8050,UnsupervisedSparse,nottarget,8,contr4,x,target,0,0.5820000000000001
8050,UnsupervisedSparse,target,9,test15,x,target,1,0.331
8050,UnsupervisedSparse,nottarget,10,catch2,x,target,0,0.33799999999999997
8050,UnsupervisedSparse,nottarget,11,catch1,n,nottarget,1,0.914
8050,UnsupervisedSparse,target,12,test8,x,target,1,0.693
8050,UnsupervisedSparse,nottarget,13,catch8,n,nottarget,1,0.46799999999999997
8050,UnsupervisedSparse,nottarget,14,contr6,x,target,0,0.423
8050,UnsupervisedSparse,nottarget,15,catch6,x,target,0,0.364
8050,UnsupervisedSparse,nottarget,16,contr7,n,nottarget,1,0.44299999999999995
8050,UnsupervisedSparse,target,17,test4,x,target,1,0.975
8050,UnsupervisedSparse,target,18,test3,x,target,1,0.5720000000000001
8050,UnsupervisedSparse,target,19,test10,x,target,1,0.441
8050,UnsupervisedSparse,nottarget,20,contr10,x,target,0,0.5489999999999999
8050,UnsupervisedSparse,nottarget,21,contr13,x,target,0,0.47700000000000004
8050,UnsupervisedSparse,target,22,test13,x,target,1,0.511
8050,UnsupervisedSparse,target,23,test7,x,target,1,0.44
8050,UnsupervisedSparse,nottarget,24,contr3,x,target,0,0.54
8050,UnsupervisedSparse,nottarget,25,contr2,x,target,0,0.506
8050,UnsupervisedSparse,nottarget,26,contr16,x,target,0,0.38
8050,UnsupervisedSparse,target,27,test12,x,target,1,0.34600000000000003
8050,UnsupervisedSparse,nottarget,28,contr5,x,target,0,0.386
8050,UnsupervisedSparse,nottarget,29,contr14,x,target,0,0.415
8050,UnsupervisedSparse,target,30,test9,x,target,1,0.444
8050,UnsupervisedSparse,nottarget,31,contr9,x,target,0,0.35200000000000004
8050,UnsupervisedSparse,nottarget,32,catch5,n,nottarget,1,1.774
8050,UnsupervisedSparse,nottarget,33,catch3,n,nottarget,1,0.574
8050,UnsupervisedSparse,nottarget,34,contr11,x,target,0,0.7709999999999999
8050,UnsupervisedSparse,target,35,test5,x,target,1,0.474
8050,UnsupervisedSparse,target,36,test1,x,target,1,0.45899999999999996
8050,UnsupervisedSparse,nottarget,37,contr12,x,target,0,0.366
8050,UnsupervisedSparse,target,38,test14,x,target,1,0.397
8050,UnsupervisedSparse,nottarget,39,contr8,x,target,0,0.45
8050,UnsupervisedSparse,nottarget,40,catch7,n,nottarget,1,0.647
8013,SupervisedDense,target,1,test5,None,None,0,9999.0
8013,SupervisedDense,nottarget,2,contr16,x,target,0,0.0
8013,SupervisedDense,nottarget,3,catch7,n,nottarget,1,3.264
8013,SupervisedDense,target,4,test11,x,target,1,2.154
8013,SupervisedDense,nottarget,5,catch3,n,nottarget,1,1.153
8013,SupervisedDense,target,6,test8,x,target,1,0.878
8013,SupervisedDense,target,7,test6,x,target,1,1.138
8013,SupervisedDense,nottarget,8,contr7,n,nottarget,1,0.995
8013,SupervisedDense,target,9,test4,x,target,1,1.672
8013,SupervisedDense,nottarget,10,contr1,n,nottarget,1,0.746
8013,SupervisedDense,nottarget,11,contr12,n,nottarget,1,0.9209999999999999
8013,SupervisedDense,target,12,test9,x,target,1,0.73
8013,SupervisedDense,nottarget,13,contr3,n,nottarget,1,0.601
8013,SupervisedDense,target,14,test2,x,target,1,0.59
8013,SupervisedDense,target,15,test12,x,target,1,1.028
8013,SupervisedDense,nottarget,16,contr14,n,nottarget,1,0.647
8013,SupervisedDense,nottarget,17,catch1,n,nottarget,1,0.626
8013,SupervisedDense,target,18,test16,x,target,1,0.8059999999999999
8013,SupervisedDense,nottarget,19,catch6,n,nottarget,1,0.594
8013,SupervisedDense,nottarget,20,contr15,n,nottarget,1,0.6629999999999999
8013,SupervisedDense,nottarget,21,contr11,n,nottarget,1,0.746
8013,SupervisedDense,nottarget,22,contr9,n,nottarget,1,0.5920000000000001
8013,SupervisedDense,nottarget,23,contr13,n,nottarget,1,0.526
8013,SupervisedDense,target,24,test13,x,target,1,1.4780000000000002
8013,SupervisedDense,target,25,test15,x,target,1,0.91
8013,SupervisedDense,nottarget,26,contr4,n,nottarget,1,1.062
8013,SupervisedDense,nottarget,27,catch8,n,nottarget,1,0.785
8013,SupervisedDense,target,28,test7,x,target,1,0.639
8013,SupervisedDense,nottarget,29,contr10,n,nottarget,1,0.619
8013,SupervisedDense,target,30,test10,x,target,1,0.6779999999999999
8013,SupervisedDense,nottarget,31,contr2,n,nottarget,1,0.768
8013,SupervisedDense,nottarget,32,catch4,n,nottarget,1,0.662
8013,SupervisedDense,nottarget,33,contr5,n,nottarget,1,2.32
8013,SupervisedDense,nottarget,34,contr6,n,nottarget,1,0.514
8013,SupervisedDense,nottarget,35,contr8,n,nottarget,1,0.449
8013,SupervisedDense,nottarget,36,catch2,n,nottarget,1,0.8440000000000001
8013,SupervisedDense,target,37,test1,x,target,1,0.6629999999999999
8013,SupervisedDense,target,38,test3,x,target,1,0.537
8013,SupervisedDense,target,39,test14,x,target,1,0.634
8013,SupervisedDense,nottarget,40,catch5,n,nottarget,1,0.43
8013,SupervisedSparse,target,1,test14,x,target,1,4.996
8013,SupervisedSparse,nottarget,2,contr3,n,nottarget,1,1.112
8013,SupervisedSparse,target,3,test2,x,target,1,0.705
8013,SupervisedSparse,target,4,test10,x,target,1,1.665
8013,SupervisedSparse,target,5,test16,x,target,1,0.508
8013,SupervisedSparse,target,6,test6,x,target,1,0.41100000000000003
8013,SupervisedSparse,nottarget,7,catch7,n,nottarget,1,0.441
8013,SupervisedSparse,nottarget,8,contr2,x,target,0,0.396
8013,SupervisedSparse,nottarget,9,contr7,x,target,0,0.441
8013,SupervisedSparse,target,10,test7,x,target,1,0.6759999999999999
8013,SupervisedSparse,nottarget,11,contr1,x,target,0,0.862
8013,SupervisedSparse,target,12,test9,x,target,1,0.616
8013,SupervisedSparse,nottarget,13,contr11,n,nottarget,1,0.821
8013,SupervisedSparse,nottarget,14,catch2,n,nottarget,1,0.866
8013,SupervisedSparse,nottarget,15,catch5,n,nottarget,1,0.491
8013,SupervisedSparse,nottarget,16,contr8,x,target,0,0.493
8013,SupervisedSparse,nottarget,17,catch8,n,nottarget,1,0.503
8013,SupervisedSparse,nottarget,18,catch6,n,nottarget,1,0.504
8013,SupervisedSparse,target,19,test5,x,target,1,0.401
8013,SupervisedSparse,target,20,test1,x,target,1,0.335
8013,SupervisedSparse,nottarget,21,catch1,n,nottarget,1,0.42200000000000004
8013,SupervisedSparse,nottarget,22,contr16,x,target,0,0.419
8013,SupervisedSparse,nottarget,23,contr14,x,target,0,0.377
8013,SupervisedSparse,target,24,test15,x,target,1,0.623
8013,SupervisedSparse,nottarget,25,contr12,x,target,0,0.8490000000000001
8013,SupervisedSparse,target,26,test4,x,target,1,1.605
8013,SupervisedSparse,target,27,test12,x,target,1,0.433
8013,SupervisedSparse,nottarget,28,contr6,x,target,0,0.382
8013,SupervisedSparse,nottarget,29,contr9,x,target,0,0.332
8013,SupervisedSparse,target,30,test13,x,target,1,0.491
8013,SupervisedSparse,nottarget,31,contr5,x,target,0,0.741
8013,SupervisedSparse,nottarget,32,catch3,n,nottarget,1,0.45399999999999996
8013,SupervisedSparse,target,33,test11,n,nottarget,0,0.425
8013,SupervisedSparse,nottarget,34,catch4,n,nottarget,1,0.516
8013,SupervisedSparse,nottarget,35,contr4,n,nottarget,1,0.581
8013,SupervisedSparse,target,36,test3,x,target,1,0.38799999999999996
8013,SupervisedSparse,nottarget,37,contr13,x,target,0,0.696
8013,SupervisedSparse,target,38,test8,x,target,1,0.37
8013,SupervisedSparse,nottarget,39,contr10,n,nottarget,1,0.625
8013,SupervisedSparse,nottarget,40,contr15,n,nottarget,1,0.37200000000000005
8013,UnsupervisedSparse,target,1,test12,x,target,1,3.235
8013,UnsupervisedSparse,nottarget,2,catch1,n,nottarget,1,1.126
8013,UnsupervisedSparse,nottarget,3,contr11,n,nottarget,1,1.591
8013,UnsupervisedSparse,nottarget,4,catch8,n,nottarget,1,0.715
8013,UnsupervisedSparse,nottarget,5,catch3,n,nottarget,1,0.5870000000000001
8013,UnsupervisedSparse,target,6,test5,x,target,1,0.45899999999999996
8013,UnsupervisedSparse,nottarget,7,contr13,n,nottarget,1,0.8440000000000001
8013,UnsupervisedSparse,nottarget,8,catch2,n,nottarget,1,0.8079999999999999
8013,UnsupervisedSparse,target,9,test15,x,target,1,0.613
8013,UnsupervisedSparse,target,10,test2,x,target,1,0.521
8013,UnsupervisedSparse,nottarget,11,contr4,n,nottarget,1,0.899
8013,UnsupervisedSparse,nottarget,12,contr7,n,nottarget,1,0.7879999999999999
8013,UnsupervisedSparse,target,13,test9,x,target,1,0.45799999999999996
8013,UnsupervisedSparse,target,14,test8,x,target,1,0.42100000000000004
8013,UnsupervisedSparse,target,15,test7,x,target,1,0.39299999999999996
8013,UnsupervisedSparse,nottarget,16,contr9,n,nottarget,1,0.63
8013,UnsupervisedSparse,target,17,test4,x,target,1,0.442
8013,UnsupervisedSparse,nottarget,18,contr8,n,nottarget,1,0.583
8013,UnsupervisedSparse,target,19,test14,x,target,1,0.684
8013,UnsupervisedSparse,target,20,test3,x,target,1,0.47
8013,UnsupervisedSparse,nottarget,21,catch7,n,nottarget,1,0.594
8013,UnsupervisedSparse,nottarget,22,contr5,n,nottarget,1,0.59
8013,UnsupervisedSparse,nottarget,23,contr12,n,nottarget,1,0.5479999999999999
8013,UnsupervisedSparse,nottarget,24,contr14,n,nottarget,1,0.484
8013,UnsupervisedSparse,nottarget,25,catch6,n,nottarget,1,0.75
8013,UnsupervisedSparse,target,26,test13,x,target,1,0.7809999999999999
8013,UnsupervisedSparse,nottarget,27,contr3,n,nottarget,1,0.62
8013,UnsupervisedSparse,nottarget,28,contr10,n,nottarget,1,0.614
8013,UnsupervisedSparse,nottarget,29,contr2,n,nottarget,1,0.509
8013,UnsupervisedSparse,nottarget,30,contr1,n,nottarget,1,0.45299999999999996
8013,UnsupervisedSparse,nottarget,31,contr6,n,nottarget,1,0.456
8013,UnsupervisedSparse,target,32,test10,x,target,1,0.41100000000000003
8013,UnsupervisedSparse,target,33,test1,x,target,1,0.409
8013,UnsupervisedSparse,target,34,test16,x,target,1,0.39799999999999996
8013,UnsupervisedSparse,target,35,test6,x,target,1,0.619
8013,UnsupervisedSparse,nottarget,36,contr15,n,nottarget,1,0.5429999999999999
8013,UnsupervisedSparse,nottarget,37,catch5,n,nottarget,1,0.46399999999999997
8013,UnsupervisedSparse,target,38,test11,x,target,1,0.43200000000000005
8013,UnsupervisedSparse,nottarget,39,contr16,n,nottarget,1,0.43799999999999994
8013,UnsupervisedSparse,nottarget,40,catch4,n,nottarget,1,0.49
8013,UnsupervisedDense,nottarget,1,catch6,n,nottarget,1,2.886
8013,UnsupervisedDense,nottarget,2,catch8,n,nottarget,1,0.92
8013,UnsupervisedDense,nottarget,3,contr14,n,nottarget,1,1.703
8013,UnsupervisedDense,nottarget,4,contr12,n,nottarget,1,1.104
8013,UnsupervisedDense,target,5,test11,x,target,1,2.376
8013,UnsupervisedDense,target,6,test1,x,target,1,1.038
8013,UnsupervisedDense,target,7,test14,x,target,1,1.729
8013,UnsupervisedDense,nottarget,8,contr2,n,nottarget,1,1.186
8013,UnsupervisedDense,nottarget,9,catch4,n,nottarget,1,0.862
8013,UnsupervisedDense,nottarget,10,catch3,n,nottarget,1,0.506
8013,UnsupervisedDense,nottarget,11,contr10,n,nottarget,1,0.9229999999999999
8013,UnsupervisedDense,target,12,test12,x,target,1,1.09
8013,UnsupervisedDense,nottarget,13,contr7,n,nottarget,1,0.9
8013,UnsupervisedDense,target,14,test2,x,target,1,0.78
8013,UnsupervisedDense,nottarget,15,catch5,n,nottarget,1,0.835
8013,UnsupervisedDense,target,16,test13,x,target,1,0.909
8013,UnsupervisedDense,nottarget,17,contr15,n,nottarget,1,0.7090000000000001
8013,UnsupervisedDense,nottarget,18,contr16,n,nottarget,1,1.015
8013,UnsupervisedDense,nottarget,19,catch7,n,nottarget,1,0.995
8013,UnsupervisedDense,nottarget,20,catch1,n,nottarget,1,0.609
8013,UnsupervisedDense,nottarget,21,contr9,n,nottarget,1,0.677
8013,UnsupervisedDense,nottarget,22,catch2,n,nottarget,1,0.565
8013,UnsupervisedDense,target,23,test16,x,target,1,0.644
8013,UnsupervisedDense,target,24,test4,x,target,1,0.391
8013,UnsupervisedDense,target,25,test9,x,target,1,0.466
8013,UnsupervisedDense,nottarget,26,contr5,n,nottarget,1,0.494
8013,UnsupervisedDense,nottarget,27,contr8,n,nottarget,1,0.439
8013,UnsupervisedDense,target,28,test7,x,target,1,0.8109999999999999
8013,UnsupervisedDense,nottarget,29,contr1,n,nottarget,1,0.551
8013,UnsupervisedDense,target,30,test8,x,target,1,0.439
8013,UnsupervisedDense,target,31,test6,x,target,1,1.1540000000000001
8013,UnsupervisedDense,target,32,test3,x,target,1,0.529
8013,UnsupervisedDense,target,33,test5,x,target,1,0.585
8013,UnsupervisedDense,nottarget,34,contr4,n,nottarget,1,0.598
8013,UnsupervisedDense,target,35,test15,x,target,1,0.6509999999999999
8013,UnsupervisedDense,nottarget,36,contr11,n,nottarget,1,0.494
8013,UnsupervisedDense,nottarget,37,contr6,n,nottarget,1,0.43
8013,UnsupervisedDense,nottarget,38,contr3,n,nottarget,1,0.5529999999999999
8013,UnsupervisedDense,target,39,test10,x,target,1,0.489
8013,UnsupervisedDense,nottarget,40,contr13,n,nottarget,1,0.474
8136,UnsupervisedSparse,nottarget,1,contr15,n,nottarget,1,1.798
8136,UnsupervisedSparse,nottarget,2,contr4,n,nottarget,1,1.5219999999999998
8136,UnsupervisedSparse,nottarget,3,contr13,n,nottarget,1,1.4909999999999999
8136,UnsupervisedSparse,nottarget,4,catch6,n,nottarget,1,1.219
8136,UnsupervisedSparse,target,5,test1,n,nottarget,0,1.7919999999999998
8136,UnsupervisedSparse,nottarget,6,catch5,n,nottarget,1,1.5330000000000001
8136,UnsupervisedSparse,target,7,test11,x,target,1,2.9739999999999998
8136,UnsupervisedSparse,nottarget,8,contr2,n,nottarget,1,1.236
8136,UnsupervisedSparse,nottarget,9,catch1,n,nottarget,1,1.272
8136,UnsupervisedSparse,target,10,test6,x,target,1,1.666
8136,UnsupervisedSparse,nottarget,11,contr10,n,nottarget,1,1.117
8136,UnsupervisedSparse,nottarget,12,contr14,n,nottarget,1,1.036
8136,UnsupervisedSparse,target,13,test15,x,target,1,1.785
8136,UnsupervisedSparse,nottarget,14,contr9,n,nottarget,1,1.1420000000000001
8136,UnsupervisedSparse,target,15,test13,n,nottarget,0,2.51
8136,UnsupervisedSparse,target,16,test2,x,target,1,1.598
8136,UnsupervisedSparse,nottarget,17,catch4,n,nottarget,1,1.202
8136,UnsupervisedSparse,target,18,test3,n,nottarget,0,1.551
8136,UnsupervisedSparse,target,19,test12,x,target,1,1.2229999999999999
8136,UnsupervisedSparse,target,20,test14,x,target,1,1.219
8136,UnsupervisedSparse,nottarget,21,contr11,n,nottarget,1,0.92
8136,UnsupervisedSparse,target,22,test10,x,target,1,1.175
8136,UnsupervisedSparse,nottarget,23,contr16,n,nottarget,1,0.703
8136,UnsupervisedSparse,nottarget,24,catch7,n,nottarget,1,0.831
8136,UnsupervisedSparse,nottarget,25,catch3,n,nottarget,1,1.3230000000000002
8136,UnsupervisedSparse,target,26,test9,n,nottarget,0,1.8840000000000001
8136,UnsupervisedSparse,target,27,test5,x,target,1,1.3
8136,UnsupervisedSparse,nottarget,28,contr6,n,nottarget,1,1.159
8136,UnsupervisedSparse,nottarget,29,contr12,n,nottarget,1,1.3719999999999999
8136,UnsupervisedSparse,nottarget,30,contr3,n,nottarget,1,1.219
8136,UnsupervisedSparse,nottarget,31,catch8,n,nottarget,1,1.175
8136,UnsupervisedSparse,nottarget,32,contr5,n,nottarget,1,1.054
8136,UnsupervisedSparse,nottarget,33,contr8,n,nottarget,1,1.047
8136,UnsupervisedSparse,nottarget,34,contr1,n,nottarget,1,1.2109999999999999
8136,UnsupervisedSparse,nottarget,35,catch2,n,nottarget,1,0.903
8136,UnsupervisedSparse,target,36,test16,x,target,1,1.6969999999999998
8136,UnsupervisedSparse,target,37,test8,x,target,1,1.673
8136,UnsupervisedSparse,nottarget,38,contr7,n,nottarget,1,1.156
8136,UnsupervisedSparse,target,39,test7,x,target,1,1.561
8136,UnsupervisedSparse,target,40,test4,x,target,1,1.185
8136,UnsupervisedDense,nottarget,1,contr1,n,nottarget,1,1.27
8136,UnsupervisedDense,target,2,test5,x,target,1,1.4409999999999998
8136,UnsupervisedDense,nottarget,3,contr4,n,nottarget,1,1.5019999999999998
8136,UnsupervisedDense,nottarget,4,contr2,n,nottarget,1,1.021
8136,UnsupervisedDense,nottarget,5,contr12,n,nottarget,1,1.169
8136,UnsupervisedDense,target,6,test1,x,target,1,1.375
8136,UnsupervisedDense,nottarget,7,catch8,n,nottarget,1,0.845
8136,UnsupervisedDense,target,8,test12,x,target,1,0.99
8136,UnsupervisedDense,target,9,test9,x,target,1,1.252
8136,UnsupervisedDense,target,10,test11,x,target,1,1.237
8136,UnsupervisedDense,target,11,test4,x,target,1,1.202
8136,UnsupervisedDense,target,12,test10,x,target,1,0.981
8136,UnsupervisedDense,nottarget,13,contr6,n,nottarget,1,0.732
8136,UnsupervisedDense,nottarget,14,catch4,None,None,0,9999.0
8136,UnsupervisedDense,target,15,test3,x,target,1,2.174
8136,UnsupervisedDense,target,16,test6,x,target,1,1.2930000000000001
8136,UnsupervisedDense,target,17,test15,x,target,1,1.525
8136,UnsupervisedDense,target,18,test8,x,target,1,1.149
8136,UnsupervisedDense,nottarget,19,catch2,n,nottarget,1,0.58
8136,UnsupervisedDense,nottarget,20,contr16,n,nottarget,1,1.073
8136,UnsupervisedDense,nottarget,21,catch7,n,nottarget,1,1.3559999999999999
8136,UnsupervisedDense,nottarget,22,catch1,n,nottarget,1,0.6829999999999999
8136,UnsupervisedDense,target,23,test16,x,target,1,0.8440000000000001
8136,UnsupervisedDense,nottarget,24,contr14,n,nottarget,1,0.7909999999999999
8136,UnsupervisedDense,nottarget,25,contr8,n,nottarget,1,0.9
8136,UnsupervisedDense,nottarget,26,contr5,n,nottarget,1,0.701
8136,UnsupervisedDense,nottarget,27,catch3,n,nottarget,1,0.797
8136,UnsupervisedDense,nottarget,28,contr3,n,nottarget,1,0.612
8136,UnsupervisedDense,nottarget,29,catch5,n,nottarget,1,0.937
8136,UnsupervisedDense,target,30,test14,x,target,1,0.735
8136,UnsupervisedDense,nottarget,31,contr13,n,nottarget,1,0.584
8136,UnsupervisedDense,target,32,test2,x,target,1,0.861
8136,UnsupervisedDense,nottarget,33,contr9,n,nottarget,1,1.4240000000000002
8136,UnsupervisedDense,nottarget,34,contr15,n,nottarget,1,1.099
8136,UnsupervisedDense,nottarget,35,contr7,n,nottarget,1,1.242
8136,UnsupervisedDense,nottarget,36,contr11,n,nottarget,1,0.75
8136,UnsupervisedDense,target,37,test13,x,target,1,0.915
8136,UnsupervisedDense,target,38,test7,x,target,1,1.508
8136,UnsupervisedDense,nottarget,39,catch6,n,nottarget,1,0.988
8136,UnsupervisedDense,nottarget,40,contr10,n,nottarget,1,0.634
8136,SupervisedDense,nottarget,1,contr14,n,nottarget,1,2.099
8136,SupervisedDense,target,2,test2,x,target,1,1.188
8136,SupervisedDense,nottarget,3,contr3,n,nottarget,1,0.746
8136,SupervisedDense,nottarget,4,catch6,n,nottarget,1,0.7609999999999999
8136,SupervisedDense,nottarget,5,catch2,n,nottarget,1,0.645
8136,SupervisedDense,nottarget,6,catch3,n,nottarget,1,0.721
8136,SupervisedDense,nottarget,7,contr11,n,nottarget,1,0.762
8136,SupervisedDense,nottarget,8,contr15,n,nottarget,1,0.591
8136,SupervisedDense,target,9,test4,x,target,1,0.821
8136,SupervisedDense,nottarget,10,contr6,n,nottarget,1,0.682
8136,SupervisedDense,target,11,test3,x,target,1,0.579
8136,SupervisedDense,nottarget,12,contr8,n,nottarget,1,0.513
8136,SupervisedDense,nottarget,13,contr10,n,nottarget,1,0.507
8136,SupervisedDense,nottarget,14,catch5,n,nottarget,1,0.539
8136,SupervisedDense,nottarget,15,catch1,n,nottarget,1,0.41100000000000003
8136,SupervisedDense,target,16,test1,x,target,1,0.56
8136,SupervisedDense,nottarget,17,contr7,n,nottarget,1,0.653
8136,SupervisedDense,nottarget,18,contr4,n,nottarget,1,0.593
8136,SupervisedDense,target,19,test13,x,target,1,0.6940000000000001
8136,SupervisedDense,nottarget,20,catch4,n,nottarget,1,0.574
8136,SupervisedDense,target,21,test9,x,target,1,0.748
8136,SupervisedDense,nottarget,22,contr9,n,nottarget,1,0.635
8136,SupervisedDense,target,23,test5,x,target,1,0.48700000000000004
8136,SupervisedDense,nottarget,24,catch7,n,nottarget,1,0.433
8136,SupervisedDense,target,25,test8,x,target,1,0.63
8136,SupervisedDense,nottarget,26,contr12,n,nottarget,1,0.488
8136,SupervisedDense,target,27,test15,x,target,1,0.539
8136,SupervisedDense,nottarget,28,contr13,n,nottarget,1,0.508
8136,SupervisedDense,nottarget,29,contr16,n,nottarget,1,0.883
8136,SupervisedDense,nottarget,30,contr5,n,nottarget,1,0.821
8136,SupervisedDense,target,31,test6,x,target,1,0.617
8136,SupervisedDense,target,32,test11,x,target,1,0.653
8136,SupervisedDense,target,33,test14,x,target,1,0.44
8136,SupervisedDense,target,34,test12,x,target,1,0.38799999999999996
8136,SupervisedDense,target,35,test10,x,target,1,0.521
8136,SupervisedDense,nottarget,36,contr2,n,nottarget,1,0.498
8136,SupervisedDense,nottarget,37,contr1,n,nottarget,1,0.40299999999999997
8136,SupervisedDense,target,38,test7,x,target,1,0.529
8136,SupervisedDense,target,39,test16,x,target,1,0.455
8136,SupervisedDense,nottarget,40,catch8,n,nottarget,1,0.507
8136,SupervisedSparse,nottarget,1,catch4,n,nottarget,1,2.06
8136,SupervisedSparse,target,2,test5,n,nottarget,0,0.888
8136,SupervisedSparse,nottarget,3,contr2,n,nottarget,1,0.6890000000000001
8136,SupervisedSparse,target,4,test1,n,nottarget,0,0.507
8136,SupervisedSparse,target,5,test3,x,target,1,0.924
8136,SupervisedSparse,nottarget,6,catch7,n,nottarget,1,0.794
8136,SupervisedSparse,target,7,test16,x,target,1,0.648
8136,SupervisedSparse,nottarget,8,contr11,n,nottarget,1,0.436
8136,SupervisedSparse,nottarget,9,contr6,n,nottarget,1,0.496
8136,SupervisedSparse,nottarget,10,contr10,n,nottarget,1,0.457
8136,SupervisedSparse,nottarget,11,catch8,n,nottarget,1,0.675
8136,SupervisedSparse,nottarget,12,contr14,n,nottarget,1,0.5710000000000001
8136,SupervisedSparse,nottarget,13,contr3,n,nottarget,1,0.5870000000000001
8136,SupervisedSparse,target,14,test2,n,nottarget,0,0.634
8136,SupervisedSparse,nottarget,15,catch5,n,nottarget,1,0.6609999999999999
8136,SupervisedSparse,nottarget,16,catch6,n,nottarget,1,0.639
8136,SupervisedSparse,target,17,test7,n,nottarget,0,0.6829999999999999
8136,SupervisedSparse,nottarget,18,contr15,n,nottarget,1,0.579
8136,SupervisedSparse,nottarget,19,contr8,n,nottarget,1,0.5379999999999999
8136,SupervisedSparse,nottarget,20,contr7,n,nottarget,1,0.625
8136,SupervisedSparse,nottarget,21,contr1,n,nottarget,1,0.491
8136,SupervisedSparse,nottarget,22,catch2,n,nottarget,1,0.8059999999999999
8136,SupervisedSparse,target,23,test4,n,nottarget,0,0.62
8136,SupervisedSparse,nottarget,24,contr16,n,nottarget,1,0.40700000000000003
8136,SupervisedSparse,target,25,test8,n,nottarget,0,0.493
8136,SupervisedSparse,target,26,test6,x,target,1,0.589
8136,SupervisedSparse,target,27,test13,x,target,1,0.563
8136,SupervisedSparse,target,28,test11,x,target,1,0.6809999999999999
8136,SupervisedSparse,nottarget,29,catch1,n,nottarget,1,0.467
8136,SupervisedSparse,target,30,test10,x,target,1,0.605
8136,SupervisedSparse,nottarget,31,contr4,n,nottarget,1,0.474
8136,SupervisedSparse,nottarget,32,contr13,n,nottarget,1,0.58
8136,SupervisedSparse,target,33,test15,n,nottarget,0,0.8590000000000001
