Experiment,Unnamed: 21,Unnamed: 24,Unnamed: 30,cat1,cat2,cat3,correct,date,expName,expTrials.thisIndex,expTrials.thisN,expTrials.thisRepN,expTrials.thisTrialN,frameRate,img1,img2,img3,participant,pracTrials.thisIndex,pracTrials.thisN,pracTrials.thisRepN,pracTrials.thisTrialN,readyTest.keys,readyTest.rt,resp.corr,resp.keys,resp.rt,session,targ,targ_img,word1,word2,word3
taxonomic,,,,dist,tax,them,down,2018_Oct_24_1339,taxthemexp_tax_img,,,,,59.60010856270001,stim/grapes.jpg,stim/handcuffs.jpg,stim/key.jpg,8041,2.0,0.0,0.0,0.0,,,1.0,down,3.6870970726,1,lock,stim/lock.jpg,grapes,handcuffs,key
taxonomic,,,,tax,them,dist,left,2018_Oct_24_1339,taxthemexp_tax_img,,,,,59.60010856270001,stim/coffeemaker.jpg,stim/stove.jpg,stim/doorknob.jpg,8041,0.0,1.0,0.0,1.0,,,1.0,left,2.06867098808,1,kettle,stim/kettle.jpg,coffee maker,stove,doorknob
taxonomic,,,,them,dist,tax,right,2018_Oct_24_1339,taxthemexp_tax_img,,,,,59.60010856270001,stim/tree.jpg,stim/guitar.jpg,stim/turtle.jpg,8041,1.0,2.0,0.0,2.0,,,1.0,right,2.00047707558,1,bird,stim/cardinal.jpg,tree,guitar,turtle
taxonomic,,,,dist,tax,them,down,2018_Oct_24_1339,taxthemexp_tax_img,,,,,59.60010856270001,stim/yarn.jpg,stim/train.jpg,stim/stopsign.jpg,8041,5.0,3.0,0.0,3.0,,,1.0,down,1.86938095093,1,car,stim/car.jpg,yarn,train,stopsign
taxonomic,,,,tax,them,dist,left,2018_Oct_24_1339,taxthemexp_tax_img,,,,,59.60010856270001,stim/pants.jpg,stim/shoe.jpg,stim/cake.jpg,8041,3.0,4.0,0.0,4.0,,,1.0,left,2.55284905434,1,sock,stim/sock.jpg,pants,shoe,cake
taxonomic,,,,them,dist,tax,right,2018_Oct_24_1339,taxthemexp_tax_img,,,,,59.60010856270001,stim/bread.jpg,stim/trumpet.jpg,stim/microwave.jpg,8041,4.0,5.0,0.0,5.0,,,1.0,right,1.90135192871,1,toaster,stim/toaster.jpg,bread,trumpet,microwave
taxonomic,,,,,,,,2018_Oct_24_1339,taxthemexp_tax_img,,,,,59.60010856270001,,,,8041,,,,,space,5.92205286026,,,,1,,,,,
taxonomic,,,,tax,them,dist,left,2018_Oct_24_1339,taxthemexp_tax_img,11.0,0.0,0.0,0.0,59.60010856270001,stim/spoon.jpg,stim/plate.jpg,stim/purse.jpg,8041,,,,,,,1.0,left,2.11755895615,1,fork,stim/fork.jpg,spoon,plate,purse
taxonomic,,,,tax,them,dist,left,2018_Oct_24_1339,taxthemexp_tax_img,13.0,1.0,0.0,1.0,59.60010856270001,stim/clarinet.jpg,stim/musicstand.jpg,stim/chips.jpg,8041,,,,,,,1.0,left,0.886435985565,1,horn,stim/horn.jpg,clarinet,music stand,chips
taxonomic,,,,tax,them,dist,left,2018_Oct_24_1339,taxthemexp_tax_img,20.0,2.0,0.0,2.0,59.60010856270001,stim/shredder.jpg,stim/desk.jpg,stim/wheelchair.jpg,8041,,,,,,,0.0,down,4.90292286873,1,printer,stim/printer.jpg,shredder,desk,wheelchair
taxonomic,,,,them,dist,tax,right,2018_Oct_24_1339,taxthemexp_tax_img,21.0,3.0,0.0,3.0,59.60010856270001,stim/chips.jpg,stim/seashell.jpg,stim/juice.jpg,8041,,,,,,,1.0,right,2.3025791645099996,1,soda,stim/soda.jpg,chips,seashell,juice
taxonomic,,,,tax,them,dist,left,2018_Oct_24_1339,taxthemexp_tax_img,7.0,4.0,0.0,4.0,59.60010856270001,stim/pipe.jpg,stim/cigarettecutter.jpg,stim/tissuebox.jpg,8041,,,,,,,1.0,left,2.38552904129,1,cigarette,stim/cigarette.jpg,pipe,cigarette cutter,tissue box
taxonomic,,,,tax,dist,them,left,2018_Oct_24_1339,taxthemexp_tax_img,15.0,5.0,0.0,5.0,59.60010856270001,stim/candle.jpg,stim/mailbox.jpg,stim/table.jpg,8041,,,,,,,1.0,left,1.7683548927300001,1,lamp,stim/lamp.jpg,candle,mailbox,table
taxonomic,,,,them,dist,tax,right,2018_Oct_24_1339,taxthemexp_tax_img,12.0,6.0,0.0,6.0,59.60010856270001,stim/hairbrush.jpg,stim/golfball.jpg,stim/scrunchie.jpg,8041,,,,,,,1.0,right,2.7017149925200004,1,headband,stim/headband.jpg,hairbrush,golfball,scrunchie
taxonomic,,,,them,dist,tax,right,2018_Oct_24_1339,taxthemexp_tax_img,8.0,7.0,0.0,7.0,59.60010856270001,stim/wine.jpg,stim/peanut.jpg,stim/peeler.jpg,8041,,,,,,,1.0,right,3.5356390476199997,1,corkscrew,stim/corkscrew.jpg,wine,peanut,peeler
taxonomic,,,,dist,tax,them,down,2018_Oct_24_1339,taxthemexp_tax_img,16.0,8.0,0.0,8.0,59.60010856270001,stim/calculator.jpg,stim/duster.jpg,stim/bucket.jpg,8041,,,,,,,1.0,down,1.6197400093099998,1,mop,stim/mop.jpg,calculator,duster,bucket
taxonomic,,,,dist,tax,them,down,2018_Oct_24_1339,taxthemexp_tax_img,18.0,9.0,0.0,9.0,59.60010856270001,stim/saltshaker.jpg,stim/ring.jpg,stim/jewellerybox.jpg,8041,,,,,,,1.0,down,1.43506503105,1,necklace,stim/necklace.jpg,saltshaker,ring,jewellery box
taxonomic,,,,tax,them,dist,left,2018_Oct_24_1339,taxthemexp_tax_img,1.0,10.0,0.0,10.0,59.60010856270001,stim/dumbbell.jpg,stim/lifejacket.jpg,stim/antelope.jpg,8041,,,,,,,1.0,left,4.00099802017,1,anchor,stim/anchor.jpg,weight,life jacket,antelope
taxonomic,,,,them,tax,dist,down,2018_Oct_24_1339,taxthemexp_tax_img,2.0,11.0,0.0,11.0,59.60010856270001,stim/ball.jpg,stim/racket.jpg,stim/dresser.jpg,8041,,,,,,,1.0,down,1.0996780395499999,1,bat,stim/bat.jpg,ball,racket,dresser
taxonomic,,,,dist,tax,them,down,2018_Oct_24_1339,taxthemexp_tax_img,14.0,12.0,0.0,12.0,59.60010856270001,stim/camel.jpg,stim/sword.jpg,stim/cuttingboard.jpg,8041,,,,,,,1.0,down,0.718309164047,1,knife,stim/knife.jpg,camel,sword,cutting board
taxonomic,,,,tax,them,dist,left,2018_Oct_24_1339,taxthemexp_tax_img,0.0,13.0,0.0,13.0,59.60010856270001,stim/canoe.jpg,stim/neckpillow.jpg,stim/duck.jpg,8041,,,,,,,0.0,right,2.06768989563,1,airplane,stim/airplane.jpg,canoe,neck pillow,duck
taxonomic,,,,dist,tax,them,down,2018_Oct_24_1339,taxthemexp_tax_img,10.0,14.0,0.0,14.0,59.60010856270001,stim/ribbon.jpg,stim/croissant.jpg,stim/pan.jpg,8041,,,,,,,1.0,down,3.15234684944,1,eggs,stim/eggs.jpg,ribbon,croissant,pan
taxonomic,,,,them,dist,tax,right,2018_Oct_24_1339,taxthemexp_tax_img,23.0,15.0,0.0,15.0,59.60010856270001,stim/suit.jpg,stim/snowglobe.jpg,stim/basket.jpg,8041,,,,,,,1.0,right,2.95239782333,1,suitcase,stim/suitcase.jpg,suit,snowglobe,basket
taxonomic,,,,dist,tax,them,down,2018_Oct_24_1339,taxthemexp_tax_img,4.0,16.0,0.0,16.0,59.60010856270001,stim/foodprocessor.jpg,stim/easel.jpg,stim/ruler.jpg,8041,,,,,,,0.0,right,3.17002797127,1,blackboard,stim/blackboard.jpg,food processor,easel,ruler
taxonomic,,,,them,dist,tax,right,2018_Oct_24_1339,taxthemexp_tax_img,9.0,17.0,0.0,17.0,59.60010856270001,stim/juice.jpg,stim/ironboard.jpg,stim/mug.jpg,8041,,,,,,,1.0,right,2.9025130271900004,1,cup,stim/cup.jpg,juice,ironing board,mug
taxonomic,,,,them,dist,tax,right,2018_Oct_24_1339,taxthemexp_tax_img,22.0,18.0,0.0,18.0,59.60010856270001,stim/sewingmachine.jpg,stim/watch.jpg,stim/yarn.jpg,8041,,,,,,,1.0,right,0.919204235077,1,string,stim/string.jpg,sewing machine,watch,yarn
taxonomic,,,,dist,tax,them,down,2018_Oct_24_1339,taxthemexp_tax_img,3.0,19.0,0.0,19.0,59.60010856270001,stim/bell.jpg,stim/microscope.jpg,stim/puffin.jpg,8041,,,,,,,1.0,down,1.8691790103900001,1,binoculars,stim/binoculars.jpg,bell,microscope,puffin
taxonomic,,,,them,dist,tax,right,2018_Oct_24_1339,taxthemexp_tax_img,6.0,20.0,0.0,20.0,59.60010856270001,stim/peanut.jpg,stim/mixer.jpg,stim/cat.jpg,8041,,,,,,,1.0,right,1.4848830699899997,1,chipmunk,stim/chipmunk.jpg,peanut,mixer,cat
taxonomic,,,,tax,dist,them,left,2018_Oct_24_1339,taxthemexp_tax_img,19.0,21.0,0.0,21.0,59.60010856270001,stim/pen.jpg,stim/rooster.jpg,stim/easel.jpg,8041,,,,,,,1.0,left,1.5168499946599998,1,paintbrush,stim/paintbrush.jpg,pen,rooster,easel
taxonomic,,,,them,dist,tax,right,2018_Oct_24_1339,taxthemexp_tax_img,17.0,22.0,0.0,22.0,59.60010856270001,stim/helmet.jpg,stim/umbrella.jpg,stim/car.jpg,8041,,,,,,,1.0,right,0.751253128052,1,motorcycle,stim/motorcycle.jpg,helmet,umbrella,car
taxonomic,,,,dist,tax,them,down,2018_Oct_24_1339,taxthemexp_tax_img,5.0,23.0,0.0,23.0,59.60010856270001,stim/chessboard.jpg,stim/icecream.jpg,stim/cheesegrater.jpg,8041,,,,,,,1.0,down,0.9515230655670001,1,cheese,stim/cheese.jpg,chessboard,ice cream,cheese grater
taxonomic,,,,them,dist,tax,right,2018_Nov_29_1425,taxthemexp_tax_img,,,,,60.0481610331,stim/bread.jpg,stim/trumpet.jpg,stim/microwave.jpg,8135,4.0,0.0,0.0,0.0,,,1.0,right,1.48670887947,1,toaster,stim/toaster.jpg,bread,trumpet,microwave
taxonomic,,,,dist,tax,them,down,2018_Nov_29_1425,taxthemexp_tax_img,,,,,60.0481610331,stim/yarn.jpg,stim/train.jpg,stim/stopsign.jpg,8135,5.0,1.0,0.0,1.0,,,0.0,right,1.18513798714,1,car,stim/car.jpg,yarn,train,stopsign
taxonomic,,,,dist,tax,them,down,2018_Nov_29_1425,taxthemexp_tax_img,,,,,60.0481610331,stim/grapes.jpg,stim/handcuffs.jpg,stim/key.jpg,8135,2.0,2.0,0.0,2.0,,,0.0,right,2.4687640667,1,lock,stim/lock.jpg,grapes,handcuffs,key
taxonomic,,,,tax,them,dist,left,2018_Nov_29_1425,taxthemexp_tax_img,,,,,60.0481610331,stim/pants.jpg,stim/shoe.jpg,stim/cake.jpg,8135,3.0,3.0,0.0,3.0,,,0.0,down,1.11863708496,1,sock,stim/sock.jpg,pants,shoe,cake
taxonomic,,,,tax,them,dist,left,2018_Nov_29_1425,taxthemexp_tax_img,,,,,60.0481610331,stim/coffeemaker.jpg,stim/stove.jpg,stim/doorknob.jpg,8135,0.0,4.0,0.0,4.0,,,1.0,left,2.68452906609,1,kettle,stim/kettle.jpg,coffee maker,stove,doorknob
taxonomic,,,,them,dist,tax,right,2018_Nov_29_1425,taxthemexp_tax_img,,,,,60.0481610331,stim/tree.jpg,stim/guitar.jpg,stim/turtle.jpg,8135,1.0,5.0,0.0,5.0,,,1.0,right,1.8672881126400003,1,bird,stim/cardinal.jpg,tree,guitar,turtle
taxonomic,,,,,,,,2018_Nov_29_1425,taxthemexp_tax_img,,,,,60.0481610331,,,,8135,,,,,space,6.10336613655,,,,1,,,,,
taxonomic,,,,them,dist,tax,right,2018_Nov_29_1425,taxthemexp_tax_img,8.0,0.0,0.0,0.0,60.0481610331,stim/wine.jpg,stim/peanut.jpg,stim/peeler.jpg,8135,,,,,,,1.0,right,1.8353569507599998,1,corkscrew,stim/corkscrew.jpg,wine,peanut,peeler
taxonomic,,,,them,dist,tax,right,2018_Nov_29_1425,taxthemexp_tax_img,23.0,1.0,0.0,1.0,60.0481610331,stim/suit.jpg,stim/snowglobe.jpg,stim/basket.jpg,8135,,,,,,,1.0,right,1.4848358631099998,1,suitcase,stim/suitcase.jpg,suit,snowglobe,basket
taxonomic,,,,dist,tax,them,down,2018_Nov_29_1425,taxthemexp_tax_img,5.0,2.0,0.0,2.0,60.0481610331,stim/chessboard.jpg,stim/icecream.jpg,stim/cheesegrater.jpg,8135,,,,,,,1.0,down,1.80135083199,1,cheese,stim/cheese.jpg,chessboard,ice cream,cheese grater
taxonomic,,,,dist,tax,them,down,2018_Nov_29_1425,taxthemexp_tax_img,3.0,3.0,0.0,3.0,60.0481610331,stim/bell.jpg,stim/microscope.jpg,stim/puffin.jpg,8135,,,,,,,0.0,right,3.6524357795699998,1,binoculars,stim/binoculars.jpg,bell,microscope,puffin
taxonomic,,,,tax,them,dist,left,2018_Nov_29_1425,taxthemexp_tax_img,11.0,4.0,0.0,4.0,60.0481610331,stim/spoon.jpg,stim/plate.jpg,stim/purse.jpg,8135,,,,,,,0.0,down,1.10237002373,1,fork,stim/fork.jpg,spoon,plate,purse
taxonomic,,,,them,dist,tax,right,2018_Nov_29_1425,taxthemexp_tax_img,9.0,5.0,0.0,5.0,60.0481610331,stim/juice.jpg,stim/ironboard.jpg,stim/mug.jpg,8135,,,,,,,1.0,right,4.0025551319099995,1,cup,stim/cup.jpg,juice,ironing board,mug
taxonomic,,,,tax,them,dist,left,2018_Nov_29_1425,taxthemexp_tax_img,7.0,6.0,0.0,6.0,60.0481610331,stim/pipe.jpg,stim/cigarettecutter.jpg,stim/tissuebox.jpg,8135,,,,,,,1.0,left,3.43456482887,1,cigarette,stim/cigarette.jpg,pipe,cigarette cutter,tissue box
taxonomic,,,,tax,them,dist,left,2018_Nov_29_1425,taxthemexp_tax_img,20.0,7.0,0.0,7.0,60.0481610331,stim/shredder.jpg,stim/desk.jpg,stim/wheelchair.jpg,8135,,,,,,,1.0,left,1.8846411705000001,1,printer,stim/printer.jpg,shredder,desk,wheelchair
taxonomic,,,,tax,dist,them,left,2018_Nov_29_1425,taxthemexp_tax_img,19.0,8.0,0.0,8.0,60.0481610331,stim/pen.jpg,stim/rooster.jpg,stim/easel.jpg,8135,,,,,,,1.0,left,1.0503041744200001,1,paintbrush,stim/paintbrush.jpg,pen,rooster,easel
taxonomic,,,,them,dist,tax,right,2018_Nov_29_1425,taxthemexp_tax_img,12.0,9.0,0.0,9.0,60.0481610331,stim/hairbrush.jpg,stim/golfball.jpg,stim/scrunchie.jpg,8135,,,,,,,1.0,right,2.13695907593,1,headband,stim/headband.jpg,hairbrush,golfball,scrunchie
taxonomic,,,,them,dist,tax,right,2018_Nov_29_1425,taxthemexp_tax_img,22.0,10.0,0.0,10.0,60.0481610331,stim/sewingmachine.jpg,stim/watch.jpg,stim/yarn.jpg,8135,,,,,,,1.0,right,1.46849608421,1,string,stim/string.jpg,sewing machine,watch,yarn
taxonomic,,,,tax,them,dist,left,2018_Nov_29_1425,taxthemexp_tax_img,13.0,11.0,0.0,11.0,60.0481610331,stim/clarinet.jpg,stim/musicstand.jpg,stim/chips.jpg,8135,,,,,,,1.0,left,0.70033288002,1,horn,stim/horn.jpg,clarinet,music stand,chips
taxonomic,,,,dist,tax,them,down,2018_Nov_29_1425,taxthemexp_tax_img,14.0,12.0,0.0,12.0,60.0481610331,stim/camel.jpg,stim/sword.jpg,stim/cuttingboard.jpg,8135,,,,,,,1.0,down,1.11825895309,1,knife,stim/knife.jpg,camel,sword,cutting board
taxonomic,,,,them,dist,tax,right,2018_Nov_29_1425,taxthemexp_tax_img,6.0,13.0,0.0,13.0,60.0481610331,stim/peanut.jpg,stim/mixer.jpg,stim/cat.jpg,8135,,,,,,,1.0,right,0.9004778862,1,chipmunk,stim/chipmunk.jpg,peanut,mixer,cat
taxonomic,,,,them,tax,dist,down,2018_Nov_29_1425,taxthemexp_tax_img,2.0,14.0,0.0,14.0,60.0481610331,stim/ball.jpg,stim/racket.jpg,stim/dresser.jpg,8135,,,,,,,1.0,down,0.8346080780030001,1,bat,stim/bat.jpg,ball,racket,dresser
taxonomic,,,,them,dist,tax,right,2018_Nov_29_1425,taxthemexp_tax_img,17.0,15.0,0.0,15.0,60.0481610331,stim/helmet.jpg,stim/umbrella.jpg,stim/car.jpg,8135,,,,,,,1.0,right,1.550552845,1,motorcycle,stim/motorcycle.jpg,helmet,umbrella,car
taxonomic,,,,dist,tax,them,down,2018_Nov_29_1425,taxthemexp_tax_img,16.0,16.0,0.0,16.0,60.0481610331,stim/calculator.jpg,stim/duster.jpg,stim/bucket.jpg,8135,,,,,,,1.0,down,0.8503589630130001,1,mop,stim/mop.jpg,calculator,duster,bucket
taxonomic,,,,dist,tax,them,down,2018_Nov_29_1425,taxthemexp_tax_img,18.0,17.0,0.0,17.0,60.0481610331,stim/saltshaker.jpg,stim/ring.jpg,stim/jewellerybox.jpg,8135,,,,,,,1.0,down,1.76737713814,1,necklace,stim/necklace.jpg,saltshaker,ring,jewellery box
taxonomic,,,,tax,dist,them,left,2018_Nov_29_1425,taxthemexp_tax_img,15.0,18.0,0.0,18.0,60.0481610331,stim/candle.jpg,stim/mailbox.jpg,stim/table.jpg,8135,,,,,,,1.0,left,1.53607606888,1,lamp,stim/lamp.jpg,candle,mailbox,table
taxonomic,,,,them,dist,tax,right,2018_Nov_29_1425,taxthemexp_tax_img,21.0,19.0,0.0,19.0,60.0481610331,stim/chips.jpg,stim/seashell.jpg,stim/juice.jpg,8135,,,,,,,1.0,right,1.2181270122499999,1,soda,stim/soda.jpg,chips,seashell,juice
taxonomic,,,,tax,them,dist,left,2018_Nov_29_1425,taxthemexp_tax_img,1.0,20.0,0.0,20.0,60.0481610331,stim/dumbbell.jpg,stim/lifejacket.jpg,stim/antelope.jpg,8135,,,,,,,1.0,left,5.47168207169,1,anchor,stim/anchor.jpg,weight,life jacket,antelope
taxonomic,,,,dist,tax,them,down,2018_Nov_29_1425,taxthemexp_tax_img,10.0,21.0,0.0,21.0,60.0481610331,stim/ribbon.jpg,stim/croissant.jpg,stim/pan.jpg,8135,,,,,,,1.0,down,0.985380172729,1,eggs,stim/eggs.jpg,ribbon,croissant,pan
taxonomic,,,,dist,tax,them,down,2018_Nov_29_1425,taxthemexp_tax_img,4.0,22.0,0.0,22.0,60.0481610331,stim/foodprocessor.jpg,stim/easel.jpg,stim/ruler.jpg,8135,,,,,,,0.0,right,1.83640503883,1,blackboard,stim/blackboard.jpg,food processor,easel,ruler
taxonomic,,,,tax,them,dist,left,2018_Nov_29_1425,taxthemexp_tax_img,0.0,23.0,0.0,23.0,60.0481610331,stim/canoe.jpg,stim/neckpillow.jpg,stim/duck.jpg,8135,,,,,,,1.0,left,0.967897891998,1,airplane,stim/airplane.jpg,canoe,neck pillow,duck
thematic,,,,tax,them,dist,down,2019_Feb_25_1341,taxthemexp_tax_img,,,,,59.9070750641,stim/pants.jpg,stim/shoe.jpg,stim/cake.jpg,8168,3.0,0.0,0.0,0.0,,,0.0,left,3.1199560165400007,1,sock,stim/sock.jpg,pants,shoe,cake
thematic,,,,them,dist,tax,left,2019_Feb_25_1341,taxthemexp_tax_img,,,,,59.9070750641,stim/tree.jpg,stim/guitar.jpg,stim/turtle.jpg,8168,1.0,1.0,0.0,1.0,,,0.0,right,1.91842103004,1,bird,stim/cardinal.jpg,tree,guitar,turtle
thematic,,,,tax,them,dist,down,2019_Feb_25_1341,taxthemexp_tax_img,,,,,59.9070750641,stim/coffeemaker.jpg,stim/stove.jpg,stim/doorknob.jpg,8168,0.0,2.0,0.0,2.0,,,0.0,left,2.16844201088,1,kettle,stim/kettle.jpg,coffee maker,stove,doorknob
thematic,,,,dist,tax,them,right,2019_Feb_25_1341,taxthemexp_tax_img,,,,,59.9070750641,stim/grapes.jpg,stim/handcuffs.jpg,stim/key.jpg,8168,2.0,3.0,0.0,3.0,,,0.0,down,3.50240492821,1,lock,stim/lock.jpg,grapes,handcuffs,key
thematic,,,,dist,tax,them,right,2019_Feb_25_1341,taxthemexp_tax_img,,,,,59.9070750641,stim/yarn.jpg,stim/train.jpg,stim/stopsign.jpg,8168,5.0,4.0,0.0,4.0,,,0.0,down,2.56814408302,1,car,stim/car.jpg,yarn,train,stopsign
thematic,,,,them,dist,tax,left,2019_Feb_25_1341,taxthemexp_tax_img,,,,,59.9070750641,stim/bread.jpg,stim/trumpet.jpg,stim/microwave.jpg,8168,4.0,5.0,0.0,5.0,,,1.0,left,3.23546409607,1,toaster,stim/toaster.jpg,bread,trumpet,microwave
thematic,,,,,,,,2019_Feb_25_1341,taxthemexp_tax_img,,,,,59.9070750641,,,,8168,,,,,space,7.05623984337,,,,1,,,,,
thematic,,,,dist,them,tax,down,2019_Feb_25_1341,taxthemexp_tax_img,17.0,0.0,0.0,0.0,59.9070750641,stim/lightswitch.jpg,stim/file.jpg,stim/dresser.jpg,8168,,,,,,,0.0,left,5.33513307571,1,file cabinet,stim/filecabinet.jpg,lightswitch,file,dresser
thematic,,,,dist,tax,them,right,2019_Feb_25_1341,taxthemexp_tax_img,16.0,1.0,0.0,1.0,59.9070750641,stim/mirror.jpg,stim/shotglass.jpg,stim/winebottle.jpg,8168,,,,,,,0.0,left,2.11852192879,1,wine glass,stim/wineglass.jpg,mirror,shotglass,wine bottle
thematic,,,,them,dist,tax,left,2019_Feb_25_1341,taxthemexp_tax_img,12.0,2.0,0.0,2.0,59.9070750641,stim/cup.jpg,stim/button.jpg,stim/stroller.jpg,8168,,,,,,,0.0,right,2.5188479423500003,1,highchair,stim/highchair.jpg,cup,button,stroller
thematic,,,,them,dist,tax,left,2019_Feb_25_1341,taxthemexp_tax_img,8.0,3.0,0.0,3.0,59.9070750641,stim/cashregister.jpg,stim/lunchbox.jpg,stim/coin.jpg,8168,,,,,,,0.0,right,2.6510670185099996,1,money,stim/money.jpg,cash register,lunchbox,coin
thematic,,,,them,dist,tax,left,2019_Feb_25_1341,taxthemexp_tax_img,11.0,4.0,0.0,4.0,59.9070750641,stim/hanger.jpg,stim/scissors.jpg,stim/skirt.jpg,8168,,,,,,,0.0,down,5.6709458828,1,suit,stim/suit.jpg,hanger,scissors,skirt
thematic,,,,dist,tax,them,right,2019_Feb_25_1341,taxthemexp_tax_img,21.0,5.0,0.0,5.0,59.9070750641,stim/lipstick.jpg,stim/radio.jpg,stim/speakers.jpg,8168,,,,,,,0.0,down,2.86824893951,1,record player,stim/recordplayer.jpg,lipstick,radio,speakers
thematic,,,,them,dist,tax,left,2019_Feb_25_1341,taxthemexp_tax_img,9.0,6.0,0.0,6.0,59.9070750641,stim/birdcage.jpg,stim/skates.jpg,stim/butterfly.jpg,8168,,,,,,,0.0,right,1.61712098122,1,parrot,stim/parrot.jpg,bird cage,skates,butterfly
thematic,,,,tax,dist,them,right,2019_Feb_25_1341,taxthemexp_tax_img,18.0,7.0,0.0,7.0,59.9070750641,stim/ham.jpg,stim/remote.jpg,stim/grill.jpg,8168,,,,,,,0.0,left,2.3006789684299997,1,steak,stim/steak.jpg,ham,remote,grill
thematic,,,,tax,dist,them,right,2019_Feb_25_1341,taxthemexp_tax_img,20.0,8.0,0.0,8.0,59.9070750641,stim/skateboard.jpg,stim/lawnmower.jpg,stim/skatehelmet.jpg,8168,,,,,,,0.0,down,3.43564605713,1,rollerblades,stim/rollerblades.jpg,skateboard,lawnmower,helmet
thematic,,,,tax,them,dist,down,2019_Feb_25_1341,taxthemexp_tax_img,5.0,9.0,0.0,9.0,59.9070750641,stim/fridge.jpg,stim/dietcoke.jpg,stim/camera.jpg,8168,,,,,,,1.0,down,3.38634300232,1,cooler,stim/cooler.jpg,fridge,diet coke,camera
thematic,,,,tax,them,dist,down,2019_Feb_25_1341,taxthemexp_tax_img,2.0,10.0,0.0,10.0,59.9070750641,stim/stool.jpg,stim/lightbulb.jpg,stim/tire.jpg,8168,,,,,,,1.0,down,6.353535175319999,1,ladder,stim/ladder.jpg,stool,lightbulb,tire
thematic,,,,dist,tax,them,right,2019_Feb_25_1341,taxthemexp_tax_img,19.0,11.0,0.0,11.0,59.9070750641,stim/kayak.jpg,stim/armyguy.jpg,stim/dollhouse.jpg,8168,,,,,,,0.0,left,2.3835899829900002,1,doll,stim/doll.jpg,kayak,army guy,dollhouse
thematic,,,,tax,them,dist,down,2019_Feb_25_1341,taxthemexp_tax_img,0.0,12.0,0.0,12.0,59.9070750641,stim/peeler.jpg,stim/pasta.jpg,stim/receipt.jpg,8168,,,,,,,1.0,down,3.1524720192,1,strainer,stim/strainer.jpg,peeler,pasta,receipt
thematic,,,,them,tax,dist,left,2019_Feb_25_1341,taxthemexp_tax_img,6.0,13.0,0.0,13.0,59.9070750641,stim/cork.jpg,stim/bottleopener.jpg,stim/globe.jpg,8168,,,,,,,1.0,left,2.3362510204299998,1,corkscrew,stim/corkscrew2.jpg,cork,bottle opener,globe
thematic,,,,tax,dist,them,right,2019_Feb_25_1341,taxthemexp_tax_img,23.0,14.0,0.0,14.0,59.9070750641,stim/croissant.jpg,stim/crib.jpg,stim/stove.jpg,8168,,,,,,,0.0,down,2.48692417145,1,pie,stim/pie.jpg,croissant,crib,stove
thematic,,,,them,dist,tax,left,2019_Feb_25_1341,taxthemexp_tax_img,13.0,15.0,0.0,15.0,59.9070750641,stim/binder.jpg,stim/balloon.jpg,stim/purse.jpg,8168,,,,,,,1.0,left,3.25346708298,1,backpack,stim/backpack.jpg,binder,balloon,purse
thematic,,,,tax,them,dist,down,2019_Feb_25_1341,taxthemexp_tax_img,4.0,16.0,0.0,16.0,59.9070750641,stim/exercisebike.jpg,stim/dumbbell.jpg,stim/goggles.jpg,8168,,,,,,,1.0,down,3.55306482315,1,exercise bench,stim/exercisebench.jpg,exercise bike,dumbbell,goggles
thematic,,,,dist,tax,them,right,2019_Feb_25_1341,taxthemexp_tax_img,15.0,17.0,0.0,17.0,59.9070750641,stim/slinky.jpg,stim/basket.jpg,stim/shirt.jpg,8168,,,,,,,1.0,right,3.5705499649,1,laundry basket,stim/laundrybasket.jpg,slinky,basket,shirt
thematic,,,,them,dist,tax,left,2019_Feb_25_1341,taxthemexp_tax_img,7.0,18.0,0.0,18.0,59.9070750641,stim/bullet.jpg,stim/starfish.jpg,stim/sword.jpg,8168,,,,,,,1.0,left,3.25258612633,1,gun,stim/gun.jpg,bullet,starfish,sword
thematic,,,,dist,them,tax,down,2019_Feb_25_1341,taxthemexp_tax_img,1.0,19.0,0.0,19.0,59.9070750641,stim/thimble.jpg,stim/log.jpg,stim/shovel.jpg,8168,,,,,,,1.0,down,2.11859703064,1,axe,stim/axe.jpg,thimble,log,shovel
thematic,,,,dist,tax,them,right,2019_Feb_25_1341,taxthemexp_tax_img,22.0,20.0,0.0,20.0,59.9070750641,stim/flashlight.jpg,stim/hair.jpg,stim/toothbrush.jpg,8168,,,,,,,0.0,down,4.01724100113,1,teeth,stim/teeth.jpg,flashlight,hair,toothbrush
thematic,,,,them,dist,tax,left,2019_Feb_25_1341,taxthemexp_tax_img,10.0,21.0,0.0,21.0,59.9070750641,stim/lighter.jpg,stim/clock.jpg,stim/lantern.jpg,8168,,,,,,,0.0,right,6.3367099762,1,candle,stim/candle.jpg,lighter,clock,lantern
thematic,,,,dist,them,tax,down,2019_Feb_25_1341,taxthemexp_tax_img,14.0,22.0,0.0,22.0,59.9070750641,stim/fishhook.jpg,stim/rug.jpg,stim/duster.jpg,8168,,,,,,,0.0,right,2.18531703949,1,vacuum,stim/vacuum.jpg,fishhook,rug,duster
thematic,,,,dist,them,tax,down,2019_Feb_25_1341,taxthemexp_tax_img,3.0,23.0,0.0,23.0,59.9070750641,stim/hairdryer.jpg,stim/leash.jpg,stim/cat.jpg,8168,,,,,,,1.0,down,1.7844259738900003,1,dog,stim/dog.jpg,hairdryer,leash,cat
thematic,,,,dist,tax,them,right,2018_Oct_31_1229,taxthemexp_tax_img,,,,,60.1934546874,stim/yarn.jpg,stim/train.jpg,stim/stopsign.jpg,8055,5.0,0.0,0.0,0.0,,,1.0,right,2.7180531024900003,1,car,stim/car.jpg,yarn,train,stopsign
thematic,,,,dist,tax,them,right,2018_Oct_31_1229,taxthemexp_tax_img,,,,,60.1934546874,stim/grapes.jpg,stim/handcuffs.jpg,stim/key.jpg,8055,2.0,1.0,0.0,1.0,,,1.0,right,2.16625404358,1,lock,stim/lock.jpg,grapes,handcuffs,key
thematic,,,,tax,them,dist,down,2018_Oct_31_1229,taxthemexp_tax_img,,,,,60.1934546874,stim/pants.jpg,stim/shoe.jpg,stim/cake.jpg,8055,3.0,2.0,0.0,2.0,,,1.0,down,1.0344188213299998,1,sock,stim/sock.jpg,pants,shoe,cake
thematic,,,,them,dist,tax,left,2018_Oct_31_1229,taxthemexp_tax_img,,,,,60.1934546874,stim/bread.jpg,stim/trumpet.jpg,stim/microwave.jpg,8055,4.0,3.0,0.0,3.0,,,0.0,right,1.43528985977,1,toaster,stim/toaster.jpg,bread,trumpet,microwave
thematic,,,,tax,them,dist,down,2018_Oct_31_1229,taxthemexp_tax_img,,,,,60.1934546874,stim/coffeemaker.jpg,stim/stove.jpg,stim/doorknob.jpg,8055,0.0,4.0,0.0,4.0,,,1.0,down,2.5188360214200003,1,kettle,stim/kettle.jpg,coffee maker,stove,doorknob
thematic,,,,them,dist,tax,left,2018_Oct_31_1229,taxthemexp_tax_img,,,,,60.1934546874,stim/tree.jpg,stim/guitar.jpg,stim/turtle.jpg,8055,1.0,5.0,0.0,5.0,,,1.0,left,1.31851816177,1,bird,stim/cardinal.jpg,tree,guitar,turtle
thematic,,,,,,,,2018_Oct_31_1229,taxthemexp_tax_img,,,,,60.1934546874,,,,8055,,,,,space,8.18669986725,,,,1,,,,,
thematic,,,,them,dist,tax,left,2018_Oct_31_1229,taxthemexp_tax_img,10.0,0.0,0.0,0.0,60.1934546874,stim/lighter.jpg,stim/clock.jpg,stim/lantern.jpg,8055,,,,,,,0.0,right,1.9357020854900002,1,candle,stim/candle.jpg,lighter,clock,lantern
thematic,,,,them,tax,dist,left,2018_Oct_31_1229,taxthemexp_tax_img,6.0,1.0,0.0,1.0,60.1934546874,stim/cork.jpg,stim/bottleopener.jpg,stim/globe.jpg,8055,,,,,,,0.0,down,1.97004294395,1,corkscrew,stim/corkscrew2.jpg,cork,bottle opener,globe
thematic,,,,dist,them,tax,down,2018_Oct_31_1229,taxthemexp_tax_img,3.0,2.0,0.0,2.0,60.1934546874,stim/hairdryer.jpg,stim/leash.jpg,stim/cat.jpg,8055,,,,,,,1.0,down,2.0853860378299998,1,dog,stim/dog.jpg,hairdryer,leash,cat
thematic,,,,them,dist,tax,left,2018_Oct_31_1229,taxthemexp_tax_img,13.0,3.0,0.0,3.0,60.1934546874,stim/binder.jpg,stim/balloon.jpg,stim/purse.jpg,8055,,,,,,,0.0,right,2.1675059795400005,1,backpack,stim/backpack.jpg,binder,balloon,purse
thematic,,,,tax,dist,them,right,2018_Oct_31_1229,taxthemexp_tax_img,18.0,4.0,0.0,4.0,60.1934546874,stim/ham.jpg,stim/remote.jpg,stim/grill.jpg,8055,,,,,,,0.0,left,3.1532671451599996,1,steak,stim/steak.jpg,ham,remote,grill
thematic,,,,tax,dist,them,right,2018_Oct_31_1229,taxthemexp_tax_img,23.0,5.0,0.0,5.0,60.1934546874,stim/croissant.jpg,stim/crib.jpg,stim/stove.jpg,8055,,,,,,,1.0,right,1.05069088936,1,pie,stim/pie.jpg,croissant,crib,stove
thematic,,,,them,dist,tax,left,2018_Oct_31_1229,taxthemexp_tax_img,9.0,6.0,0.0,6.0,60.1934546874,stim/birdcage.jpg,stim/skates.jpg,stim/butterfly.jpg,8055,,,,,,,1.0,left,1.2676718235,1,parrot,stim/parrot.jpg,bird cage,skates,butterfly
thematic,,,,them,dist,tax,left,2018_Oct_31_1229,taxthemexp_tax_img,11.0,7.0,0.0,7.0,60.1934546874,stim/hanger.jpg,stim/scissors.jpg,stim/skirt.jpg,8055,,,,,,,0.0,right,1.0700199604,1,suit,stim/suit.jpg,hanger,scissors,skirt
thematic,,,,them,dist,tax,left,2018_Oct_31_1229,taxthemexp_tax_img,12.0,8.0,0.0,8.0,60.1934546874,stim/cup.jpg,stim/button.jpg,stim/stroller.jpg,8055,,,,,,,0.0,right,1.63419294357,1,highchair,stim/highchair.jpg,cup,button,stroller
thematic,,,,dist,them,tax,down,2018_Oct_31_1229,taxthemexp_tax_img,17.0,9.0,0.0,9.0,60.1934546874,stim/lightswitch.jpg,stim/file.jpg,stim/dresser.jpg,8055,,,,,,,1.0,down,3.2854228019700003,1,file cabinet,stim/filecabinet.jpg,lightswitch,file,dresser
thematic,,,,dist,tax,them,right,2018_Oct_31_1229,taxthemexp_tax_img,19.0,10.0,0.0,10.0,60.1934546874,stim/kayak.jpg,stim/armyguy.jpg,stim/dollhouse.jpg,8055,,,,,,,1.0,right,1.6518769264200002,1,doll,stim/doll.jpg,kayak,army guy,dollhouse
thematic,,,,dist,tax,them,right,2018_Oct_31_1229,taxthemexp_tax_img,16.0,11.0,0.0,11.0,60.1934546874,stim/mirror.jpg,stim/shotglass.jpg,stim/winebottle.jpg,8055,,,,,,,1.0,right,1.40167093277,1,wine glass,stim/wineglass.jpg,mirror,shotglass,wine bottle
thematic,,,,dist,them,tax,down,2018_Oct_31_1229,taxthemexp_tax_img,14.0,12.0,0.0,12.0,60.1934546874,stim/fishhook.jpg,stim/rug.jpg,stim/duster.jpg,8055,,,,,,,1.0,down,2.0510709285699997,1,vacuum,stim/vacuum.jpg,fishhook,rug,duster
thematic,,,,dist,them,tax,down,2018_Oct_31_1229,taxthemexp_tax_img,1.0,13.0,0.0,13.0,60.1934546874,stim/thimble.jpg,stim/log.jpg,stim/shovel.jpg,8055,,,,,,,0.0,right,2.58569002151,1,axe,stim/axe.jpg,thimble,log,shovel
thematic,,,,tax,them,dist,down,2018_Oct_31_1229,taxthemexp_tax_img,0.0,14.0,0.0,14.0,60.1934546874,stim/peeler.jpg,stim/pasta.jpg,stim/receipt.jpg,8055,,,,,,,1.0,down,1.56825399399,1,strainer,stim/strainer.jpg,peeler,pasta,receipt
thematic,,,,dist,tax,them,right,2018_Oct_31_1229,taxthemexp_tax_img,22.0,15.0,0.0,15.0,60.1934546874,stim/flashlight.jpg,stim/hair.jpg,stim/toothbrush.jpg,8055,,,,,,,1.0,right,2.28323507309,1,teeth,stim/teeth.jpg,flashlight,hair,toothbrush
thematic,,,,them,dist,tax,left,2018_Oct_31_1229,taxthemexp_tax_img,7.0,16.0,0.0,16.0,60.1934546874,stim/bullet.jpg,stim/starfish.jpg,stim/sword.jpg,8055,,,,,,,1.0,left,3.5675768852199994,1,gun,stim/gun.jpg,bullet,starfish,sword
thematic,,,,tax,dist,them,right,2018_Oct_31_1229,taxthemexp_tax_img,20.0,17.0,0.0,17.0,60.1934546874,stim/skateboard.jpg,stim/lawnmower.jpg,stim/skatehelmet.jpg,8055,,,,,,,1.0,right,3.55137300491,1,rollerblades,stim/rollerblades.jpg,skateboard,lawnmower,helmet
thematic,,,,dist,tax,them,right,2018_Oct_31_1229,taxthemexp_tax_img,15.0,18.0,0.0,18.0,60.1934546874,stim/slinky.jpg,stim/basket.jpg,stim/shirt.jpg,8055,,,,,,,1.0,right,2.2346789836900003,1,laundry basket,stim/laundrybasket.jpg,slinky,basket,shirt
thematic,,,,tax,them,dist,down,2018_Oct_31_1229,taxthemexp_tax_img,4.0,19.0,0.0,19.0,60.1934546874,stim/exercisebike.jpg,stim/dumbbell.jpg,stim/goggles.jpg,8055,,,,,,,1.0,down,4.66931796074,1,exercise bench,stim/exercisebench.jpg,exercise bike,dumbbell,goggles
thematic,,,,tax,them,dist,down,2018_Oct_31_1229,taxthemexp_tax_img,2.0,20.0,0.0,20.0,60.1934546874,stim/stool.jpg,stim/lightbulb.jpg,stim/tire.jpg,8055,,,,,,,1.0,down,3.88400006294,1,ladder,stim/ladder.jpg,stool,lightbulb,tire
thematic,,,,tax,them,dist,down,2018_Oct_31_1229,taxthemexp_tax_img,5.0,21.0,0.0,21.0,60.1934546874,stim/fridge.jpg,stim/dietcoke.jpg,stim/camera.jpg,8055,,,,,,,1.0,down,2.20066595078,1,cooler,stim/cooler.jpg,fridge,diet coke,camera
thematic,,,,them,dist,tax,left,2018_Oct_31_1229,taxthemexp_tax_img,8.0,22.0,0.0,22.0,60.1934546874,stim/cashregister.jpg,stim/lunchbox.jpg,stim/coin.jpg,8055,,,,,,,1.0,left,7.637052059169999,1,money,stim/money.jpg,cash register,lunchbox,coin
thematic,,,,dist,tax,them,right,2018_Oct_31_1229,taxthemexp_tax_img,21.0,23.0,0.0,23.0,60.1934546874,stim/lipstick.jpg,stim/radio.jpg,stim/speakers.jpg,8055,,,,,,,0.0,down,4.68677401543,1,record player,stim/recordplayer.jpg,lipstick,radio,speakers
taxonomic,,,,them,dist,tax,right,2018_Dec_05_0933,taxthemexp_tax_img,,,,,59.232211853500004,stim/tree.jpg,stim/guitar.jpg,stim/turtle.jpg,8152,1.0,0.0,0.0,0.0,,,0.0,left,2.3024098873099996,1,bird,stim/cardinal.jpg,tree,guitar,turtle
taxonomic,,,,dist,tax,them,down,2018_Dec_05_0933,taxthemexp_tax_img,,,,,59.232211853500004,stim/yarn.jpg,stim/train.jpg,stim/stopsign.jpg,8152,5.0,1.0,0.0,1.0,,,0.0,right,1.9181060791,1,car,stim/car.jpg,yarn,train,stopsign
taxonomic,,,,tax,them,dist,left,2018_Dec_05_0933,taxthemexp_tax_img,,,,,59.232211853500004,stim/pants.jpg,stim/shoe.jpg,stim/cake.jpg,8152,3.0,2.0,0.0,2.0,,,1.0,left,3.0512149334,1,sock,stim/sock.jpg,pants,shoe,cake
taxonomic,,,,dist,tax,them,down,2018_Dec_05_0933,taxthemexp_tax_img,,,,,59.232211853500004,stim/grapes.jpg,stim/handcuffs.jpg,stim/key.jpg,8152,2.0,3.0,0.0,3.0,,,1.0,down,1.80053782463,1,lock,stim/lock.jpg,grapes,handcuffs,key
taxonomic,,,,tax,them,dist,left,2018_Dec_05_0933,taxthemexp_tax_img,,,,,59.232211853500004,stim/coffeemaker.jpg,stim/stove.jpg,stim/doorknob.jpg,8152,0.0,4.0,0.0,4.0,,,1.0,left,2.18559002876,1,kettle,stim/kettle.jpg,coffee maker,stove,doorknob
taxonomic,,,,them,dist,tax,right,2018_Dec_05_0933,taxthemexp_tax_img,,,,,59.232211853500004,stim/bread.jpg,stim/trumpet.jpg,stim/microwave.jpg,8152,4.0,5.0,0.0,5.0,,,1.0,right,1.33462786674,1,toaster,stim/toaster.jpg,bread,trumpet,microwave
taxonomic,,,,,,,,2018_Dec_05_0933,taxthemexp_tax_img,,,,,59.232211853500004,,,,8152,,,,,space,5.62060284615,,,,1,,,,,
taxonomic,,,,them,tax,dist,down,2018_Dec_05_0933,taxthemexp_tax_img,2.0,0.0,0.0,0.0,59.232211853500004,stim/ball.jpg,stim/racket.jpg,stim/dresser.jpg,8152,,,,,,,1.0,down,1.0183880329100001,1,bat,stim/bat.jpg,ball,racket,dresser
taxonomic,,,,them,dist,tax,right,2018_Dec_05_0933,taxthemexp_tax_img,21.0,1.0,0.0,1.0,59.232211853500004,stim/chips.jpg,stim/seashell.jpg,stim/juice.jpg,8152,,,,,,,1.0,right,2.2199690341900005,1,soda,stim/soda.jpg,chips,seashell,juice
taxonomic,,,,tax,them,dist,left,2018_Dec_05_0933,taxthemexp_tax_img,1.0,2.0,0.0,2.0,59.232211853500004,stim/dumbbell.jpg,stim/lifejacket.jpg,stim/antelope.jpg,8152,,,,,,,0.0,down,4.35287690163,1,anchor,stim/anchor.jpg,weight,life jacket,antelope
taxonomic,,,,them,dist,tax,right,2018_Dec_05_0933,taxthemexp_tax_img,17.0,3.0,0.0,3.0,59.232211853500004,stim/helmet.jpg,stim/umbrella.jpg,stim/car.jpg,8152,,,,,,,1.0,right,1.8699750900299998,1,motorcycle,stim/motorcycle.jpg,helmet,umbrella,car
taxonomic,,,,dist,tax,them,down,2018_Dec_05_0933,taxthemexp_tax_img,3.0,4.0,0.0,4.0,59.232211853500004,stim/bell.jpg,stim/microscope.jpg,stim/puffin.jpg,8152,,,,,,,1.0,down,2.3515169620500003,1,binoculars,stim/binoculars.jpg,bell,microscope,puffin
taxonomic,,,,them,dist,tax,right,2018_Dec_05_0933,taxthemexp_tax_img,23.0,5.0,0.0,5.0,59.232211853500004,stim/suit.jpg,stim/snowglobe.jpg,stim/basket.jpg,8152,,,,,,,1.0,right,1.7520380020099997,1,suitcase,stim/suitcase.jpg,suit,snowglobe,basket
taxonomic,,,,tax,them,dist,left,2018_Dec_05_0933,taxthemexp_tax_img,11.0,6.0,0.0,6.0,59.232211853500004,stim/spoon.jpg,stim/plate.jpg,stim/purse.jpg,8152,,,,,,,1.0,left,1.05308008194,1,fork,stim/fork.jpg,spoon,plate,purse
taxonomic,,,,dist,tax,them,down,2018_Dec_05_0933,taxthemexp_tax_img,18.0,7.0,0.0,7.0,59.232211853500004,stim/saltshaker.jpg,stim/ring.jpg,stim/jewellerybox.jpg,8152,,,,,,,1.0,down,1.58513593674,1,necklace,stim/necklace.jpg,saltshaker,ring,jewellery box
taxonomic,,,,tax,dist,them,left,2018_Dec_05_0933,taxthemexp_tax_img,15.0,8.0,0.0,8.0,59.232211853500004,stim/candle.jpg,stim/mailbox.jpg,stim/table.jpg,8152,,,,,,,1.0,left,2.30114102364,1,lamp,stim/lamp.jpg,candle,mailbox,table
taxonomic,,,,tax,them,dist,left,2018_Dec_05_0933,taxthemexp_tax_img,0.0,9.0,0.0,9.0,59.232211853500004,stim/canoe.jpg,stim/neckpillow.jpg,stim/duck.jpg,8152,,,,,,,0.0,right,2.6518840789800002,1,airplane,stim/airplane.jpg,canoe,neck pillow,duck
taxonomic,,,,them,dist,tax,right,2018_Dec_05_0933,taxthemexp_tax_img,22.0,10.0,0.0,10.0,59.232211853500004,stim/sewingmachine.jpg,stim/watch.jpg,stim/yarn.jpg,8152,,,,,,,1.0,right,1.68539786339,1,string,stim/string.jpg,sewing machine,watch,yarn
taxonomic,,,,them,dist,tax,right,2018_Dec_05_0933,taxthemexp_tax_img,6.0,11.0,0.0,11.0,59.232211853500004,stim/peanut.jpg,stim/mixer.jpg,stim/cat.jpg,8152,,,,,,,1.0,right,2.05089497566,1,chipmunk,stim/chipmunk.jpg,peanut,mixer,cat
taxonomic,,,,tax,them,dist,left,2018_Dec_05_0933,taxthemexp_tax_img,7.0,12.0,0.0,12.0,59.232211853500004,stim/pipe.jpg,stim/cigarettecutter.jpg,stim/tissuebox.jpg,8152,,,,,,,1.0,left,3.1692900657700003,1,cigarette,stim/cigarette.jpg,pipe,cigarette cutter,tissue box
taxonomic,,,,them,dist,tax,right,2018_Dec_05_0933,taxthemexp_tax_img,12.0,13.0,0.0,13.0,59.232211853500004,stim/hairbrush.jpg,stim/golfball.jpg,stim/scrunchie.jpg,8152,,,,,,,1.0,right,3.01957392693,1,headband,stim/headband.jpg,hairbrush,golfball,scrunchie
taxonomic,,,,them,dist,tax,right,2018_Dec_05_0933,taxthemexp_tax_img,8.0,14.0,0.0,14.0,59.232211853500004,stim/wine.jpg,stim/peanut.jpg,stim/peeler.jpg,8152,,,,,,,1.0,right,2.12015295029,1,corkscrew,stim/corkscrew.jpg,wine,peanut,peeler
taxonomic,,,,dist,tax,them,down,2018_Dec_05_0933,taxthemexp_tax_img,4.0,15.0,0.0,15.0,59.232211853500004,stim/foodprocessor.jpg,stim/easel.jpg,stim/ruler.jpg,8152,,,,,,,0.0,right,2.7869880199400003,1,blackboard,stim/blackboard.jpg,food processor,easel,ruler
taxonomic,,,,dist,tax,them,down,2018_Dec_05_0933,taxthemexp_tax_img,16.0,16.0,0.0,16.0,59.232211853500004,stim/calculator.jpg,stim/duster.jpg,stim/bucket.jpg,8152,,,,,,,1.0,down,2.0854198932599997,1,mop,stim/mop.jpg,calculator,duster,bucket
taxonomic,,,,dist,tax,them,down,2018_Dec_05_0933,taxthemexp_tax_img,5.0,17.0,0.0,17.0,59.232211853500004,stim/chessboard.jpg,stim/icecream.jpg,stim/cheesegrater.jpg,8152,,,,,,,1.0,down,1.86719608307,1,cheese,stim/cheese.jpg,chessboard,ice cream,cheese grater
taxonomic,,,,tax,dist,them,left,2018_Dec_05_0933,taxthemexp_tax_img,19.0,18.0,0.0,18.0,59.232211853500004,stim/pen.jpg,stim/rooster.jpg,stim/easel.jpg,8152,,,,,,,1.0,left,4.25254583359,1,paintbrush,stim/paintbrush.jpg,pen,rooster,easel
taxonomic,,,,them,dist,tax,right,2018_Dec_05_0933,taxthemexp_tax_img,9.0,19.0,0.0,19.0,59.232211853500004,stim/juice.jpg,stim/ironboard.jpg,stim/mug.jpg,8152,,,,,,,1.0,right,2.4007761478400003,1,cup,stim/cup.jpg,juice,ironing board,mug
taxonomic,,,,tax,them,dist,left,2018_Dec_05_0933,taxthemexp_tax_img,13.0,20.0,0.0,20.0,59.232211853500004,stim/clarinet.jpg,stim/musicstand.jpg,stim/chips.jpg,8152,,,,,,,1.0,left,3.4524350166300004,1,horn,stim/horn.jpg,clarinet,music stand,chips
taxonomic,,,,dist,tax,them,down,2018_Dec_05_0933,taxthemexp_tax_img,10.0,21.0,0.0,21.0,59.232211853500004,stim/ribbon.jpg,stim/croissant.jpg,stim/pan.jpg,8152,,,,,,,1.0,down,3.8025619983699994,1,eggs,stim/eggs.jpg,ribbon,croissant,pan
taxonomic,,,,tax,them,dist,left,2018_Dec_05_0933,taxthemexp_tax_img,20.0,22.0,0.0,22.0,59.232211853500004,stim/shredder.jpg,stim/desk.jpg,stim/wheelchair.jpg,8152,,,,,,,1.0,left,3.08650302887,1,printer,stim/printer.jpg,shredder,desk,wheelchair
taxonomic,,,,dist,tax,them,down,2018_Dec_05_0933,taxthemexp_tax_img,14.0,23.0,0.0,23.0,59.232211853500004,stim/camel.jpg,stim/sword.jpg,stim/cuttingboard.jpg,8152,,,,,,,1.0,down,1.31995105743,1,knife,stim/knife.jpg,camel,sword,cutting board
thematic,,,,dist,tax,them,right,2018_Oct_22_1331,taxthemexp_tax_img,,,,,60.3164586997,stim/yarn.jpg,stim/train.jpg,stim/stopsign.jpg,8029,5.0,0.0,0.0,0.0,,,1.0,right,2.0018520355200002,1,car,stim/car.jpg,yarn,train,stopsign
thematic,,,,them,dist,tax,left,2018_Oct_22_1331,taxthemexp_tax_img,,,,,60.3164586997,stim/tree.jpg,stim/guitar.jpg,stim/turtle.jpg,8029,1.0,1.0,0.0,1.0,,,1.0,left,1.1693918705,1,bird,stim/cardinal.jpg,tree,guitar,turtle
thematic,,,,tax,them,dist,down,2018_Oct_22_1331,taxthemexp_tax_img,,,,,60.3164586997,stim/coffeemaker.jpg,stim/stove.jpg,stim/doorknob.jpg,8029,0.0,2.0,0.0,2.0,,,1.0,down,0.785026073456,1,kettle,stim/kettle.jpg,coffee maker,stove,doorknob
thematic,,,,tax,them,dist,down,2018_Oct_22_1331,taxthemexp_tax_img,,,,,60.3164586997,stim/pants.jpg,stim/shoe.jpg,stim/cake.jpg,8029,3.0,3.0,0.0,3.0,,,1.0,down,0.636209011078,1,sock,stim/sock.jpg,pants,shoe,cake
thematic,,,,them,dist,tax,left,2018_Oct_22_1331,taxthemexp_tax_img,,,,,60.3164586997,stim/bread.jpg,stim/trumpet.jpg,stim/microwave.jpg,8029,4.0,4.0,0.0,4.0,,,1.0,left,1.8517680168200001,1,toaster,stim/toaster.jpg,bread,trumpet,microwave
thematic,,,,dist,tax,them,right,2018_Oct_22_1331,taxthemexp_tax_img,,,,,60.3164586997,stim/grapes.jpg,stim/handcuffs.jpg,stim/key.jpg,8029,2.0,5.0,0.0,5.0,,,1.0,right,0.868028879166,1,lock,stim/lock.jpg,grapes,handcuffs,key
thematic,,,,,,,,2018_Oct_22_1331,taxthemexp_tax_img,,,,,60.3164586997,,,,8029,,,,,space,2.1694560051,,,,1,,,,,
thematic,,,,dist,tax,them,right,2018_Oct_22_1331,taxthemexp_tax_img,21.0,0.0,0.0,0.0,60.3164586997,stim/lipstick.jpg,stim/radio.jpg,stim/speakers.jpg,8029,,,,,,,1.0,right,1.9853789806400002,1,record player,stim/recordplayer.jpg,lipstick,radio,speakers
thematic,,,,dist,them,tax,down,2018_Oct_22_1331,taxthemexp_tax_img,17.0,1.0,0.0,1.0,60.3164586997,stim/lightswitch.jpg,stim/file.jpg,stim/dresser.jpg,8029,,,,,,,1.0,down,1.08404898643,1,file cabinet,stim/filecabinet.jpg,lightswitch,file,dresser
thematic,,,,dist,them,tax,down,2018_Oct_22_1331,taxthemexp_tax_img,3.0,2.0,0.0,2.0,60.3164586997,stim/hairdryer.jpg,stim/leash.jpg,stim/cat.jpg,8029,,,,,,,1.0,down,2.3850510120400004,1,dog,stim/dog.jpg,hairdryer,leash,cat
thematic,,,,tax,dist,them,right,2018_Oct_22_1331,taxthemexp_tax_img,20.0,3.0,0.0,3.0,60.3164586997,stim/skateboard.jpg,stim/lawnmower.jpg,stim/skatehelmet.jpg,8029,,,,,,,1.0,right,1.48644089699,1,rollerblades,stim/rollerblades.jpg,skateboard,lawnmower,helmet
thematic,,,,dist,tax,them,right,2018_Oct_22_1331,taxthemexp_tax_img,22.0,4.0,0.0,4.0,60.3164586997,stim/flashlight.jpg,stim/hair.jpg,stim/toothbrush.jpg,8029,,,,,,,1.0,right,1.2852020263700001,1,teeth,stim/teeth.jpg,flashlight,hair,toothbrush
thematic,,,,them,dist,tax,left,2018_Oct_22_1331,taxthemexp_tax_img,13.0,5.0,0.0,5.0,60.3164586997,stim/binder.jpg,stim/balloon.jpg,stim/purse.jpg,8029,,,,,,,1.0,left,1.40136194229,1,backpack,stim/backpack.jpg,binder,balloon,purse
thematic,,,,tax,dist,them,right,2018_Oct_22_1331,taxthemexp_tax_img,18.0,6.0,0.0,6.0,60.3164586997,stim/ham.jpg,stim/remote.jpg,stim/grill.jpg,8029,,,,,,,1.0,right,2.18661403656,1,steak,stim/steak.jpg,ham,remote,grill
thematic,,,,tax,dist,them,right,2018_Oct_22_1331,taxthemexp_tax_img,23.0,7.0,0.0,7.0,60.3164586997,stim/croissant.jpg,stim/crib.jpg,stim/stove.jpg,8029,,,,,,,1.0,right,1.4339621067,1,pie,stim/pie.jpg,croissant,crib,stove
thematic,,,,them,tax,dist,left,2018_Oct_22_1331,taxthemexp_tax_img,6.0,8.0,0.0,8.0,60.3164586997,stim/cork.jpg,stim/bottleopener.jpg,stim/globe.jpg,8029,,,,,,,1.0,left,1.4837501049000001,1,corkscrew,stim/corkscrew2.jpg,cork,bottle opener,globe
thematic,,,,dist,tax,them,right,2018_Oct_22_1331,taxthemexp_tax_img,19.0,9.0,0.0,9.0,60.3164586997,stim/kayak.jpg,stim/armyguy.jpg,stim/dollhouse.jpg,8029,,,,,,,1.0,right,1.20143890381,1,doll,stim/doll.jpg,kayak,army guy,dollhouse
thematic,,,,tax,them,dist,down,2018_Oct_22_1331,taxthemexp_tax_img,5.0,10.0,0.0,10.0,60.3164586997,stim/fridge.jpg,stim/dietcoke.jpg,stim/camera.jpg,8029,,,,,,,1.0,down,2.2521591186500003,1,cooler,stim/cooler.jpg,fridge,diet coke,camera
thematic,,,,dist,tax,them,right,2018_Oct_22_1331,taxthemexp_tax_img,16.0,11.0,0.0,11.0,60.3164586997,stim/mirror.jpg,stim/shotglass.jpg,stim/winebottle.jpg,8029,,,,,,,1.0,right,0.769396066666,1,wine glass,stim/wineglass.jpg,mirror,shotglass,wine bottle
thematic,,,,tax,them,dist,down,2018_Oct_22_1331,taxthemexp_tax_img,0.0,12.0,0.0,12.0,60.3164586997,stim/peeler.jpg,stim/pasta.jpg,stim/receipt.jpg,8029,,,,,,,1.0,down,1.3853468894999998,1,strainer,stim/strainer.jpg,peeler,pasta,receipt
thematic,,,,tax,them,dist,down,2018_Oct_22_1331,taxthemexp_tax_img,2.0,13.0,0.0,13.0,60.3164586997,stim/stool.jpg,stim/lightbulb.jpg,stim/tire.jpg,8029,,,,,,,1.0,down,2.7858560085299997,1,ladder,stim/ladder.jpg,stool,lightbulb,tire
thematic,,,,dist,them,tax,down,2018_Oct_22_1331,taxthemexp_tax_img,14.0,14.0,0.0,14.0,60.3164586997,stim/fishhook.jpg,stim/rug.jpg,stim/duster.jpg,8029,,,,,,,1.0,down,1.16947102547,1,vacuum,stim/vacuum.jpg,fishhook,rug,duster
thematic,,,,them,dist,tax,left,2018_Oct_22_1331,taxthemexp_tax_img,11.0,15.0,0.0,15.0,60.3164586997,stim/hanger.jpg,stim/scissors.jpg,stim/skirt.jpg,8029,,,,,,,1.0,left,2.01853013039,1,suit,stim/suit.jpg,hanger,scissors,skirt
thematic,,,,dist,tax,them,right,2018_Oct_22_1331,taxthemexp_tax_img,15.0,16.0,0.0,16.0,60.3164586997,stim/slinky.jpg,stim/basket.jpg,stim/shirt.jpg,8029,,,,,,,1.0,right,1.3341529369399998,1,laundry basket,stim/laundrybasket.jpg,slinky,basket,shirt
thematic,,,,them,dist,tax,left,2018_Oct_22_1331,taxthemexp_tax_img,10.0,17.0,0.0,17.0,60.3164586997,stim/lighter.jpg,stim/clock.jpg,stim/lantern.jpg,8029,,,,,,,1.0,left,3.1688430309299997,1,candle,stim/candle.jpg,lighter,clock,lantern
thematic,,,,them,dist,tax,left,2018_Oct_22_1331,taxthemexp_tax_img,7.0,18.0,0.0,18.0,60.3164586997,stim/bullet.jpg,stim/starfish.jpg,stim/sword.jpg,8029,,,,,,,1.0,left,1.46859002113,1,gun,stim/gun.jpg,bullet,starfish,sword
thematic,,,,them,dist,tax,left,2018_Oct_22_1331,taxthemexp_tax_img,12.0,19.0,0.0,19.0,60.3164586997,stim/cup.jpg,stim/button.jpg,stim/stroller.jpg,8029,,,,,,,1.0,left,2.1348760128,1,highchair,stim/highchair.jpg,cup,button,stroller
thematic,,,,them,dist,tax,left,2018_Oct_22_1331,taxthemexp_tax_img,8.0,20.0,0.0,20.0,60.3164586997,stim/cashregister.jpg,stim/lunchbox.jpg,stim/coin.jpg,8029,,,,,,,1.0,left,2.71876788139,1,money,stim/money.jpg,cash register,lunchbox,coin
thematic,,,,tax,them,dist,down,2018_Oct_22_1331,taxthemexp_tax_img,4.0,21.0,0.0,21.0,60.3164586997,stim/exercisebike.jpg,stim/dumbbell.jpg,stim/goggles.jpg,8029,,,,,,,1.0,down,1.73632907867,1,exercise bench,stim/exercisebench.jpg,exercise bike,dumbbell,goggles
thematic,,,,them,dist,tax,left,2018_Oct_22_1331,taxthemexp_tax_img,9.0,22.0,0.0,22.0,60.3164586997,stim/birdcage.jpg,stim/skates.jpg,stim/butterfly.jpg,8029,,,,,,,1.0,left,0.834697008133,1,parrot,stim/parrot.jpg,bird cage,skates,butterfly
thematic,,,,dist,them,tax,down,2018_Oct_22_1331,taxthemexp_tax_img,1.0,23.0,0.0,23.0,60.3164586997,stim/thimble.jpg,stim/log.jpg,stim/shovel.jpg,8029,,,,,,,1.0,down,1.51892113686,1,axe,stim/axe.jpg,thimble,log,shovel
taxonomic,,,,tax,them,dist,left,2018_Nov_05_1354,taxthemexp_tax_img,,,,,60.102628475500005,stim/pants.jpg,stim/shoe.jpg,stim/cake.jpg,8069,3.0,0.0,0.0,0.0,,,0.0,down,1.08401203156,1,sock,stim/sock.jpg,pants,shoe,cake
taxonomic,,,,dist,tax,them,down,2018_Nov_05_1354,taxthemexp_tax_img,,,,,60.102628475500005,stim/yarn.jpg,stim/train.jpg,stim/stopsign.jpg,8069,5.0,1.0,0.0,1.0,,,1.0,down,1.9196288585699999,1,car,stim/car.jpg,yarn,train,stopsign
taxonomic,,,,dist,tax,them,down,2018_Nov_05_1354,taxthemexp_tax_img,,,,,60.102628475500005,stim/grapes.jpg,stim/handcuffs.jpg,stim/key.jpg,8069,2.0,2.0,0.0,2.0,,,1.0,down,1.48557901382,1,lock,stim/lock.jpg,grapes,handcuffs,key
taxonomic,,,,them,dist,tax,right,2018_Nov_05_1354,taxthemexp_tax_img,,,,,60.102628475500005,stim/bread.jpg,stim/trumpet.jpg,stim/microwave.jpg,8069,4.0,3.0,0.0,3.0,,,1.0,right,0.935529947281,1,toaster,stim/toaster.jpg,bread,trumpet,microwave
taxonomic,,,,them,dist,tax,right,2018_Nov_05_1354,taxthemexp_tax_img,,,,,60.102628475500005,stim/tree.jpg,stim/guitar.jpg,stim/turtle.jpg,8069,1.0,4.0,0.0,4.0,,,1.0,right,0.718371868134,1,bird,stim/cardinal.jpg,tree,guitar,turtle
taxonomic,,,,tax,them,dist,left,2018_Nov_05_1354,taxthemexp_tax_img,,,,,60.102628475500005,stim/coffeemaker.jpg,stim/stove.jpg,stim/doorknob.jpg,8069,0.0,5.0,0.0,5.0,,,1.0,left,1.06930708885,1,kettle,stim/kettle.jpg,coffee maker,stove,doorknob
taxonomic,,,,,,,,2018_Nov_05_1354,taxthemexp_tax_img,,,,,60.102628475500005,,,,8069,,,,,space,5.46960496902,,,,1,,,,,
taxonomic,,,,them,dist,tax,right,2018_Nov_05_1354,taxthemexp_tax_img,6.0,0.0,0.0,0.0,60.102628475500005,stim/peanut.jpg,stim/mixer.jpg,stim/cat.jpg,8069,,,,,,,1.0,right,0.7018041610719999,1,chipmunk,stim/chipmunk.jpg,peanut,mixer,cat
taxonomic,,,,tax,them,dist,left,2018_Nov_05_1354,taxthemexp_tax_img,11.0,1.0,0.0,1.0,60.102628475500005,stim/spoon.jpg,stim/plate.jpg,stim/purse.jpg,8069,,,,,,,1.0,left,0.8185188770290001,1,fork,stim/fork.jpg,spoon,plate,purse
taxonomic,,,,them,dist,tax,right,2018_Nov_05_1354,taxthemexp_tax_img,9.0,2.0,0.0,2.0,60.102628475500005,stim/juice.jpg,stim/ironboard.jpg,stim/mug.jpg,8069,,,,,,,1.0,right,0.73522901535,1,cup,stim/cup.jpg,juice,ironing board,mug
taxonomic,,,,tax,them,dist,left,2018_Nov_05_1354,taxthemexp_tax_img,0.0,3.0,0.0,3.0,60.102628475500005,stim/canoe.jpg,stim/neckpillow.jpg,stim/duck.jpg,8069,,,,,,,1.0,left,1.38622808456,1,airplane,stim/airplane.jpg,canoe,neck pillow,duck
taxonomic,,,,them,tax,dist,down,2018_Nov_05_1354,taxthemexp_tax_img,2.0,4.0,0.0,4.0,60.102628475500005,stim/ball.jpg,stim/racket.jpg,stim/dresser.jpg,8069,,,,,,,1.0,down,1.46845412254,1,bat,stim/bat.jpg,ball,racket,dresser
taxonomic,,,,dist,tax,them,down,2018_Nov_05_1354,taxthemexp_tax_img,5.0,5.0,0.0,5.0,60.102628475500005,stim/chessboard.jpg,stim/icecream.jpg,stim/cheesegrater.jpg,8069,,,,,,,1.0,down,1.7842409610699999,1,cheese,stim/cheese.jpg,chessboard,ice cream,cheese grater
taxonomic,,,,dist,tax,them,down,2018_Nov_05_1354,taxthemexp_tax_img,3.0,6.0,0.0,6.0,60.102628475500005,stim/bell.jpg,stim/microscope.jpg,stim/puffin.jpg,8069,,,,,,,1.0,down,1.1346011161799998,1,binoculars,stim/binoculars.jpg,bell,microscope,puffin
taxonomic,,,,tax,dist,them,left,2018_Nov_05_1354,taxthemexp_tax_img,19.0,7.0,0.0,7.0,60.102628475500005,stim/pen.jpg,stim/rooster.jpg,stim/easel.jpg,8069,,,,,,,1.0,left,2.66819095612,1,paintbrush,stim/paintbrush.jpg,pen,rooster,easel
taxonomic,,,,them,dist,tax,right,2018_Nov_05_1354,taxthemexp_tax_img,17.0,8.0,0.0,8.0,60.102628475500005,stim/helmet.jpg,stim/umbrella.jpg,stim/car.jpg,8069,,,,,,,1.0,right,0.9675650596619999,1,motorcycle,stim/motorcycle.jpg,helmet,umbrella,car
taxonomic,,,,dist,tax,them,down,2018_Nov_05_1354,taxthemexp_tax_img,14.0,9.0,0.0,9.0,60.102628475500005,stim/camel.jpg,stim/sword.jpg,stim/cuttingboard.jpg,8069,,,,,,,1.0,down,0.517642021179,1,knife,stim/knife.jpg,camel,sword,cutting board
taxonomic,,,,tax,them,dist,left,2018_Nov_05_1354,taxthemexp_tax_img,13.0,10.0,0.0,10.0,60.102628475500005,stim/clarinet.jpg,stim/musicstand.jpg,stim/chips.jpg,8069,,,,,,,1.0,left,0.651573896408,1,horn,stim/horn.jpg,clarinet,music stand,chips
taxonomic,,,,dist,tax,them,down,2018_Nov_05_1354,taxthemexp_tax_img,4.0,11.0,0.0,11.0,60.102628475500005,stim/foodprocessor.jpg,stim/easel.jpg,stim/ruler.jpg,8069,,,,,,,1.0,down,1.2516770362899998,1,blackboard,stim/blackboard.jpg,food processor,easel,ruler
taxonomic,,,,tax,dist,them,left,2018_Nov_05_1354,taxthemexp_tax_img,15.0,12.0,0.0,12.0,60.102628475500005,stim/candle.jpg,stim/mailbox.jpg,stim/table.jpg,8069,,,,,,,1.0,left,0.7683041095730001,1,lamp,stim/lamp.jpg,candle,mailbox,table
taxonomic,,,,dist,tax,them,down,2018_Nov_05_1354,taxthemexp_tax_img,16.0,13.0,0.0,13.0,60.102628475500005,stim/calculator.jpg,stim/duster.jpg,stim/bucket.jpg,8069,,,,,,,1.0,down,0.7679347991940001,1,mop,stim/mop.jpg,calculator,duster,bucket
taxonomic,,,,dist,tax,them,down,2018_Nov_05_1354,taxthemexp_tax_img,10.0,14.0,0.0,14.0,60.102628475500005,stim/ribbon.jpg,stim/croissant.jpg,stim/pan.jpg,8069,,,,,,,1.0,down,0.753443002701,1,eggs,stim/eggs.jpg,ribbon,croissant,pan
taxonomic,,,,them,dist,tax,right,2018_Nov_05_1354,taxthemexp_tax_img,12.0,15.0,0.0,15.0,60.102628475500005,stim/hairbrush.jpg,stim/golfball.jpg,stim/scrunchie.jpg,8069,,,,,,,1.0,right,1.00197911263,1,headband,stim/headband.jpg,hairbrush,golfball,scrunchie
taxonomic,,,,them,dist,tax,right,2018_Nov_05_1354,taxthemexp_tax_img,8.0,16.0,0.0,16.0,60.102628475500005,stim/wine.jpg,stim/peanut.jpg,stim/peeler.jpg,8069,,,,,,,1.0,right,1.85239601135,1,corkscrew,stim/corkscrew.jpg,wine,peanut,peeler
taxonomic,,,,dist,tax,them,down,2018_Nov_05_1354,taxthemexp_tax_img,18.0,17.0,0.0,17.0,60.102628475500005,stim/saltshaker.jpg,stim/ring.jpg,stim/jewellerybox.jpg,8069,,,,,,,1.0,down,1.6343669891400001,1,necklace,stim/necklace.jpg,saltshaker,ring,jewellery box
taxonomic,,,,them,dist,tax,right,2018_Nov_05_1354,taxthemexp_tax_img,23.0,18.0,0.0,18.0,60.102628475500005,stim/suit.jpg,stim/snowglobe.jpg,stim/basket.jpg,8069,,,,,,,1.0,right,1.01730704308,1,suitcase,stim/suitcase.jpg,suit,snowglobe,basket
taxonomic,,,,tax,them,dist,left,2018_Nov_05_1354,taxthemexp_tax_img,1.0,19.0,0.0,19.0,60.102628475500005,stim/dumbbell.jpg,stim/lifejacket.jpg,stim/antelope.jpg,8069,,,,,,,1.0,left,4.3356389999400005,1,anchor,stim/anchor.jpg,weight,life jacket,antelope
taxonomic,,,,them,dist,tax,right,2018_Nov_05_1354,taxthemexp_tax_img,22.0,20.0,0.0,20.0,60.102628475500005,stim/sewingmachine.jpg,stim/watch.jpg,stim/yarn.jpg,8069,,,,,,,1.0,right,0.885331869125,1,string,stim/string.jpg,sewing machine,watch,yarn
taxonomic,,,,them,dist,tax,right,2018_Nov_05_1354,taxthemexp_tax_img,21.0,21.0,0.0,21.0,60.102628475500005,stim/chips.jpg,stim/seashell.jpg,stim/juice.jpg,8069,,,,,,,1.0,right,0.601634979248,1,soda,stim/soda.jpg,chips,seashell,juice
taxonomic,,,,tax,them,dist,left,2018_Nov_05_1354,taxthemexp_tax_img,20.0,22.0,0.0,22.0,60.102628475500005,stim/shredder.jpg,stim/desk.jpg,stim/wheelchair.jpg,8069,,,,,,,1.0,left,2.8855171203600003,1,printer,stim/printer.jpg,shredder,desk,wheelchair
taxonomic,,,,tax,them,dist,left,2018_Nov_05_1354,taxthemexp_tax_img,7.0,23.0,0.0,23.0,60.102628475500005,stim/pipe.jpg,stim/cigarettecutter.jpg,stim/tissuebox.jpg,8069,,,,,,,1.0,left,1.83652091026,1,cigarette,stim/cigarette.jpg,pipe,cigarette cutter,tissue box
taxonomic,,,,dist,tax,them,down,2018_Oct_29_1648,taxthemexp_tax_img,,,,,59.878509969700005,stim/grapes.jpg,stim/handcuffs.jpg,stim/key.jpg,8049,2.0,0.0,0.0,0.0,,,0.0,right,2.25085496902,1,lock,stim/lock.jpg,grapes,handcuffs,key
taxonomic,,,,them,dist,tax,right,2018_Oct_29_1648,taxthemexp_tax_img,,,,,59.878509969700005,stim/tree.jpg,stim/guitar.jpg,stim/turtle.jpg,8049,1.0,1.0,0.0,1.0,,,0.0,left,1.71761417389,1,bird,stim/cardinal.jpg,tree,guitar,turtle
taxonomic,,,,dist,tax,them,down,2018_Oct_29_1648,taxthemexp_tax_img,,,,,59.878509969700005,stim/yarn.jpg,stim/train.jpg,stim/stopsign.jpg,8049,5.0,2.0,0.0,2.0,,,1.0,down,5.736047983169999,1,car,stim/car.jpg,yarn,train,stopsign
taxonomic,,,,them,dist,tax,right,2018_Oct_29_1648,taxthemexp_tax_img,,,,,59.878509969700005,stim/bread.jpg,stim/trumpet.jpg,stim/microwave.jpg,8049,4.0,3.0,0.0,3.0,,,1.0,right,1.5517168044999998,1,toaster,stim/toaster.jpg,bread,trumpet,microwave
taxonomic,,,,tax,them,dist,left,2018_Oct_29_1648,taxthemexp_tax_img,,,,,59.878509969700005,stim/coffeemaker.jpg,stim/stove.jpg,stim/doorknob.jpg,8049,0.0,4.0,0.0,4.0,,,0.0,down,5.85340499878,1,kettle,stim/kettle.jpg,coffee maker,stove,doorknob
taxonomic,,,,tax,them,dist,left,2018_Oct_29_1648,taxthemexp_tax_img,,,,,59.878509969700005,stim/pants.jpg,stim/shoe.jpg,stim/cake.jpg,8049,3.0,5.0,0.0,5.0,,,0.0,down,3.0344059467299997,1,sock,stim/sock.jpg,pants,shoe,cake
taxonomic,,,,,,,,2018_Oct_29_1648,taxthemexp_tax_img,,,,,59.878509969700005,,,,8049,,,,,space,6.70524191856,,,,1,,,,,
taxonomic,,,,them,dist,tax,right,2018_Oct_29_1648,taxthemexp_tax_img,23.0,0.0,0.0,0.0,59.878509969700005,stim/suit.jpg,stim/snowglobe.jpg,stim/basket.jpg,8049,,,,,,,0.0,left,1.41712999344,1,suitcase,stim/suitcase.jpg,suit,snowglobe,basket
taxonomic,,,,them,dist,tax,right,2018_Oct_29_1648,taxthemexp_tax_img,22.0,1.0,0.0,1.0,59.878509969700005,stim/sewingmachine.jpg,stim/watch.jpg,stim/yarn.jpg,8049,,,,,,,0.0,left,2.7857837677,1,string,stim/string.jpg,sewing machine,watch,yarn
taxonomic,,,,dist,tax,them,down,2018_Oct_29_1648,taxthemexp_tax_img,4.0,2.0,0.0,2.0,59.878509969700005,stim/foodprocessor.jpg,stim/easel.jpg,stim/ruler.jpg,8049,,,,,,,1.0,down,5.80274510384,1,blackboard,stim/blackboard.jpg,food processor,easel,ruler
taxonomic,,,,tax,them,dist,left,2018_Oct_29_1648,taxthemexp_tax_img,7.0,3.0,0.0,3.0,59.878509969700005,stim/pipe.jpg,stim/cigarettecutter.jpg,stim/tissuebox.jpg,8049,,,,,,,1.0,left,2.1840639114400004,1,cigarette,stim/cigarette.jpg,pipe,cigarette cutter,tissue box
taxonomic,,,,tax,them,dist,left,2018_Oct_29_1648,taxthemexp_tax_img,13.0,4.0,0.0,4.0,59.878509969700005,stim/clarinet.jpg,stim/musicstand.jpg,stim/chips.jpg,8049,,,,,,,0.0,down,2.28546595573,1,horn,stim/horn.jpg,clarinet,music stand,chips
taxonomic,,,,dist,tax,them,down,2018_Oct_29_1648,taxthemexp_tax_img,16.0,5.0,0.0,5.0,59.878509969700005,stim/calculator.jpg,stim/duster.jpg,stim/bucket.jpg,8049,,,,,,,1.0,down,2.55357289314,1,mop,stim/mop.jpg,calculator,duster,bucket
taxonomic,,,,tax,them,dist,left,2018_Oct_29_1648,taxthemexp_tax_img,20.0,6.0,0.0,6.0,59.878509969700005,stim/shredder.jpg,stim/desk.jpg,stim/wheelchair.jpg,8049,,,,,,,0.0,down,3.1866829395300003,1,printer,stim/printer.jpg,shredder,desk,wheelchair
taxonomic,,,,dist,tax,them,down,2018_Oct_29_1648,taxthemexp_tax_img,5.0,7.0,0.0,7.0,59.878509969700005,stim/chessboard.jpg,stim/icecream.jpg,stim/cheesegrater.jpg,8049,,,,,,,1.0,down,3.5194838047,1,cheese,stim/cheese.jpg,chessboard,ice cream,cheese grater
taxonomic,,,,them,dist,tax,right,2018_Oct_29_1648,taxthemexp_tax_img,21.0,8.0,0.0,8.0,59.878509969700005,stim/chips.jpg,stim/seashell.jpg,stim/juice.jpg,8049,,,,,,,0.0,left,4.68651819229,1,soda,stim/soda.jpg,chips,seashell,juice
taxonomic,,,,dist,tax,them,down,2018_Oct_29_1648,taxthemexp_tax_img,14.0,9.0,0.0,9.0,59.878509969700005,stim/camel.jpg,stim/sword.jpg,stim/cuttingboard.jpg,8049,,,,,,,0.0,right,1.35291695595,1,knife,stim/knife.jpg,camel,sword,cutting board
taxonomic,,,,dist,tax,them,down,2018_Oct_29_1648,taxthemexp_tax_img,3.0,10.0,0.0,10.0,59.878509969700005,stim/bell.jpg,stim/microscope.jpg,stim/puffin.jpg,8049,,,,,,,1.0,down,4.33700299263,1,binoculars,stim/binoculars.jpg,bell,microscope,puffin
taxonomic,,,,tax,them,dist,left,2018_Oct_29_1648,taxthemexp_tax_img,1.0,11.0,0.0,11.0,59.878509969700005,stim/dumbbell.jpg,stim/lifejacket.jpg,stim/antelope.jpg,8049,,,,,,,1.0,left,4.50285196304,1,anchor,stim/anchor.jpg,weight,life jacket,antelope
taxonomic,,,,dist,tax,them,down,2018_Oct_29_1648,taxthemexp_tax_img,18.0,12.0,0.0,12.0,59.878509969700005,stim/saltshaker.jpg,stim/ring.jpg,stim/jewellerybox.jpg,8049,,,,,,,1.0,down,4.10230207443,1,necklace,stim/necklace.jpg,saltshaker,ring,jewellery box
taxonomic,,,,tax,dist,them,left,2018_Oct_29_1648,taxthemexp_tax_img,19.0,13.0,0.0,13.0,59.878509969700005,stim/pen.jpg,stim/rooster.jpg,stim/easel.jpg,8049,,,,,,,0.0,right,4.9366271495800005,1,paintbrush,stim/paintbrush.jpg,pen,rooster,easel
taxonomic,,,,tax,them,dist,left,2018_Oct_29_1648,taxthemexp_tax_img,0.0,14.0,0.0,14.0,59.878509969700005,stim/canoe.jpg,stim/neckpillow.jpg,stim/duck.jpg,8049,,,,,,,0.0,down,5.235418081280001,1,airplane,stim/airplane.jpg,canoe,neck pillow,duck
taxonomic,,,,tax,dist,them,left,2018_Oct_29_1648,taxthemexp_tax_img,15.0,15.0,0.0,15.0,59.878509969700005,stim/candle.jpg,stim/mailbox.jpg,stim/table.jpg,8049,,,,,,,0.0,right,2.4676220417,1,lamp,stim/lamp.jpg,candle,mailbox,table
taxonomic,,,,them,dist,tax,right,2018_Oct_29_1648,taxthemexp_tax_img,8.0,16.0,0.0,16.0,59.878509969700005,stim/wine.jpg,stim/peanut.jpg,stim/peeler.jpg,8049,,,,,,,0.0,left,2.35249996185,1,corkscrew,stim/corkscrew.jpg,wine,peanut,peeler
taxonomic,,,,tax,them,dist,left,2018_Oct_29_1648,taxthemexp_tax_img,11.0,17.0,0.0,17.0,59.878509969700005,stim/spoon.jpg,stim/plate.jpg,stim/purse.jpg,8049,,,,,,,1.0,left,1.83367419243,1,fork,stim/fork.jpg,spoon,plate,purse
taxonomic,,,,them,dist,tax,right,2018_Oct_29_1648,taxthemexp_tax_img,9.0,18.0,0.0,18.0,59.878509969700005,stim/juice.jpg,stim/ironboard.jpg,stim/mug.jpg,8049,,,,,,,1.0,right,5.00281715393,1,cup,stim/cup.jpg,juice,ironing board,mug
taxonomic,,,,dist,tax,them,down,2018_Oct_29_1648,taxthemexp_tax_img,10.0,19.0,0.0,19.0,59.878509969700005,stim/ribbon.jpg,stim/croissant.jpg,stim/pan.jpg,8049,,,,,,,1.0,down,3.73377299309,1,eggs,stim/eggs.jpg,ribbon,croissant,pan
taxonomic,,,,them,tax,dist,down,2018_Oct_29_1648,taxthemexp_tax_img,2.0,20.0,0.0,20.0,59.878509969700005,stim/ball.jpg,stim/racket.jpg,stim/dresser.jpg,8049,,,,,,,1.0,down,1.21730303764,1,bat,stim/bat.jpg,ball,racket,dresser
taxonomic,,,,them,dist,tax,right,2018_Oct_29_1648,taxthemexp_tax_img,6.0,21.0,0.0,21.0,59.878509969700005,stim/peanut.jpg,stim/mixer.jpg,stim/cat.jpg,8049,,,,,,,1.0,right,1.13410496712,1,chipmunk,stim/chipmunk.jpg,peanut,mixer,cat
taxonomic,,,,them,dist,tax,right,2018_Oct_29_1648,taxthemexp_tax_img,12.0,22.0,0.0,22.0,59.878509969700005,stim/hairbrush.jpg,stim/golfball.jpg,stim/scrunchie.jpg,8049,,,,,,,1.0,right,2.71728181839,1,headband,stim/headband.jpg,hairbrush,golfball,scrunchie
taxonomic,,,,them,dist,tax,right,2018_Oct_29_1648,taxthemexp_tax_img,17.0,23.0,0.0,23.0,59.878509969700005,stim/helmet.jpg,stim/umbrella.jpg,stim/car.jpg,8049,,,,,,,1.0,right,2.13364219666,1,motorcycle,stim/motorcycle.jpg,helmet,umbrella,car
taxonomic,,,,tax,them,dist,left,2018_Nov_09_1632,taxthemexp_tax_img,,,,,59.978607178599994,stim/coffeemaker.jpg,stim/stove.jpg,stim/doorknob.jpg,8087,0.0,0.0,0.0,0.0,,,1.0,left,4.1191039085400005,1,kettle,stim/kettle.jpg,coffee maker,stove,doorknob
taxonomic,,,,tax,them,dist,left,2018_Nov_09_1632,taxthemexp_tax_img,,,,,59.978607178599994,stim/pants.jpg,stim/shoe.jpg,stim/cake.jpg,8087,3.0,1.0,0.0,1.0,,,0.0,down,1.78498196602,1,sock,stim/sock.jpg,pants,shoe,cake
taxonomic,,,,dist,tax,them,down,2018_Nov_09_1632,taxthemexp_tax_img,,,,,59.978607178599994,stim/yarn.jpg,stim/train.jpg,stim/stopsign.jpg,8087,5.0,2.0,0.0,2.0,,,1.0,down,1.8842740058900003,1,car,stim/car.jpg,yarn,train,stopsign
taxonomic,,,,them,dist,tax,right,2018_Nov_09_1632,taxthemexp_tax_img,,,,,59.978607178599994,stim/tree.jpg,stim/guitar.jpg,stim/turtle.jpg,8087,1.0,3.0,0.0,3.0,,,1.0,right,2.96871185303,1,bird,stim/cardinal.jpg,tree,guitar,turtle
taxonomic,,,,them,dist,tax,right,2018_Nov_09_1632,taxthemexp_tax_img,,,,,59.978607178599994,stim/bread.jpg,stim/trumpet.jpg,stim/microwave.jpg,8087,4.0,4.0,0.0,4.0,,,1.0,right,1.5012600421899998,1,toaster,stim/toaster.jpg,bread,trumpet,microwave
taxonomic,,,,dist,tax,them,down,2018_Nov_09_1632,taxthemexp_tax_img,,,,,59.978607178599994,stim/grapes.jpg,stim/handcuffs.jpg,stim/key.jpg,8087,2.0,5.0,0.0,5.0,,,1.0,down,2.96801805496,1,lock,stim/lock.jpg,grapes,handcuffs,key
taxonomic,,,,,,,,2018_Nov_09_1632,taxthemexp_tax_img,,,,,59.978607178599994,,,,8087,,,,,space,7.520464897160001,,,,1,,,,,
taxonomic,,,,them,dist,tax,right,2018_Nov_09_1632,taxthemexp_tax_img,22.0,0.0,0.0,0.0,59.978607178599994,stim/sewingmachine.jpg,stim/watch.jpg,stim/yarn.jpg,8087,,,,,,,1.0,right,1.8343801498400003,1,string,stim/string.jpg,sewing machine,watch,yarn
taxonomic,,,,tax,them,dist,left,2018_Nov_09_1632,taxthemexp_tax_img,0.0,1.0,0.0,1.0,59.978607178599994,stim/canoe.jpg,stim/neckpillow.jpg,stim/duck.jpg,8087,,,,,,,1.0,left,1.2683827877,1,airplane,stim/airplane.jpg,canoe,neck pillow,duck
taxonomic,,,,dist,tax,them,down,2018_Nov_09_1632,taxthemexp_tax_img,10.0,2.0,0.0,2.0,59.978607178599994,stim/ribbon.jpg,stim/croissant.jpg,stim/pan.jpg,8087,,,,,,,1.0,down,2.08542299271,1,eggs,stim/eggs.jpg,ribbon,croissant,pan
taxonomic,,,,tax,them,dist,left,2018_Nov_09_1632,taxthemexp_tax_img,1.0,3.0,0.0,3.0,59.978607178599994,stim/dumbbell.jpg,stim/lifejacket.jpg,stim/antelope.jpg,8087,,,,,,,1.0,left,3.61900782585,1,anchor,stim/anchor.jpg,weight,life jacket,antelope
taxonomic,,,,them,dist,tax,right,2018_Nov_09_1632,taxthemexp_tax_img,9.0,4.0,0.0,4.0,59.978607178599994,stim/juice.jpg,stim/ironboard.jpg,stim/mug.jpg,8087,,,,,,,0.0,left,2.9355990886699996,1,cup,stim/cup.jpg,juice,ironing board,mug
taxonomic,,,,dist,tax,them,down,2018_Nov_09_1632,taxthemexp_tax_img,18.0,5.0,0.0,5.0,59.978607178599994,stim/saltshaker.jpg,stim/ring.jpg,stim/jewellerybox.jpg,8087,,,,,,,1.0,down,1.4686529636399999,1,necklace,stim/necklace.jpg,saltshaker,ring,jewellery box
taxonomic,,,,tax,them,dist,left,2018_Nov_09_1632,taxthemexp_tax_img,7.0,6.0,0.0,6.0,59.978607178599994,stim/pipe.jpg,stim/cigarettecutter.jpg,stim/tissuebox.jpg,8087,,,,,,,1.0,left,2.2843341827400003,1,cigarette,stim/cigarette.jpg,pipe,cigarette cutter,tissue box
taxonomic,,,,tax,them,dist,left,2018_Nov_09_1632,taxthemexp_tax_img,20.0,7.0,0.0,7.0,59.978607178599994,stim/shredder.jpg,stim/desk.jpg,stim/wheelchair.jpg,8087,,,,,,,0.0,down,2.9019930362700004,1,printer,stim/printer.jpg,shredder,desk,wheelchair
taxonomic,,,,them,dist,tax,right,2018_Nov_09_1632,taxthemexp_tax_img,23.0,8.0,0.0,8.0,59.978607178599994,stim/suit.jpg,stim/snowglobe.jpg,stim/basket.jpg,8087,,,,,,,1.0,right,1.86956620216,1,suitcase,stim/suitcase.jpg,suit,snowglobe,basket
taxonomic,,,,dist,tax,them,down,2018_Nov_09_1632,taxthemexp_tax_img,14.0,9.0,0.0,9.0,59.978607178599994,stim/camel.jpg,stim/sword.jpg,stim/cuttingboard.jpg,8087,,,,,,,1.0,down,1.10159397125,1,knife,stim/knife.jpg,camel,sword,cutting board
taxonomic,,,,dist,tax,them,down,2018_Nov_09_1632,taxthemexp_tax_img,4.0,10.0,0.0,10.0,59.978607178599994,stim/foodprocessor.jpg,stim/easel.jpg,stim/ruler.jpg,8087,,,,,,,1.0,down,2.05223989487,1,blackboard,stim/blackboard.jpg,food processor,easel,ruler
taxonomic,,,,tax,dist,them,left,2018_Nov_09_1632,taxthemexp_tax_img,15.0,11.0,0.0,11.0,59.978607178599994,stim/candle.jpg,stim/mailbox.jpg,stim/table.jpg,8087,,,,,,,1.0,left,1.23422288895,1,lamp,stim/lamp.jpg,candle,mailbox,table
taxonomic,,,,tax,them,dist,left,2018_Nov_09_1632,taxthemexp_tax_img,13.0,12.0,0.0,12.0,59.978607178599994,stim/clarinet.jpg,stim/musicstand.jpg,stim/chips.jpg,8087,,,,,,,1.0,left,0.800226926804,1,horn,stim/horn.jpg,clarinet,music stand,chips
taxonomic,,,,them,dist,tax,right,2018_Nov_09_1632,taxthemexp_tax_img,6.0,13.0,0.0,13.0,59.978607178599994,stim/peanut.jpg,stim/mixer.jpg,stim/cat.jpg,8087,,,,,,,1.0,right,0.701309919357,1,chipmunk,stim/chipmunk.jpg,peanut,mixer,cat
taxonomic,,,,them,dist,tax,right,2018_Nov_09_1632,taxthemexp_tax_img,21.0,14.0,0.0,14.0,59.978607178599994,stim/chips.jpg,stim/seashell.jpg,stim/juice.jpg,8087,,,,,,,1.0,right,1.1006181240100001,1,soda,stim/soda.jpg,chips,seashell,juice
taxonomic,,,,dist,tax,them,down,2018_Nov_09_1632,taxthemexp_tax_img,5.0,15.0,0.0,15.0,59.978607178599994,stim/chessboard.jpg,stim/icecream.jpg,stim/cheesegrater.jpg,8087,,,,,,,1.0,down,1.08522295952,1,cheese,stim/cheese.jpg,chessboard,ice cream,cheese grater
taxonomic,,,,dist,tax,them,down,2018_Nov_09_1632,taxthemexp_tax_img,3.0,16.0,0.0,16.0,59.978607178599994,stim/bell.jpg,stim/microscope.jpg,stim/puffin.jpg,8087,,,,,,,1.0,down,0.966836929321,1,binoculars,stim/binoculars.jpg,bell,microscope,puffin
taxonomic,,,,them,dist,tax,right,2018_Nov_09_1632,taxthemexp_tax_img,17.0,17.0,0.0,17.0,59.978607178599994,stim/helmet.jpg,stim/umbrella.jpg,stim/car.jpg,8087,,,,,,,1.0,right,0.7181828022,1,motorcycle,stim/motorcycle.jpg,helmet,umbrella,car
taxonomic,,,,tax,them,dist,left,2018_Nov_09_1632,taxthemexp_tax_img,11.0,18.0,0.0,18.0,59.978607178599994,stim/spoon.jpg,stim/plate.jpg,stim/purse.jpg,8087,,,,,,,1.0,left,0.8835339546200002,1,fork,stim/fork.jpg,spoon,plate,purse
taxonomic,,,,them,dist,tax,right,2018_Nov_09_1632,taxthemexp_tax_img,8.0,19.0,0.0,19.0,59.978607178599994,stim/wine.jpg,stim/peanut.jpg,stim/peeler.jpg,8087,,,,,,,1.0,right,2.2195518016799998,1,corkscrew,stim/corkscrew.jpg,wine,peanut,peeler
taxonomic,,,,tax,dist,them,left,2018_Nov_09_1632,taxthemexp_tax_img,19.0,20.0,0.0,20.0,59.978607178599994,stim/pen.jpg,stim/rooster.jpg,stim/easel.jpg,8087,,,,,,,1.0,left,3.0523970127099997,1,paintbrush,stim/paintbrush.jpg,pen,rooster,easel
taxonomic,,,,dist,tax,them,down,2018_Nov_09_1632,taxthemexp_tax_img,16.0,21.0,0.0,21.0,59.978607178599994,stim/calculator.jpg,stim/duster.jpg,stim/bucket.jpg,8087,,,,,,,1.0,down,0.968291044235,1,mop,stim/mop.jpg,calculator,duster,bucket
taxonomic,,,,them,tax,dist,down,2018_Nov_09_1632,taxthemexp_tax_img,2.0,22.0,0.0,22.0,59.978607178599994,stim/ball.jpg,stim/racket.jpg,stim/dresser.jpg,8087,,,,,,,1.0,down,1.13625812531,1,bat,stim/bat.jpg,ball,racket,dresser
taxonomic,,,,them,dist,tax,right,2018_Nov_09_1632,taxthemexp_tax_img,12.0,23.0,0.0,23.0,59.978607178599994,stim/hairbrush.jpg,stim/golfball.jpg,stim/scrunchie.jpg,8087,,,,,,,0.0,down,1.63565182686,1,headband,stim/headband.jpg,hairbrush,golfball,scrunchie
taxonomic,,,,tax,them,dist,left,2018_Nov_05_1425,taxthemexp_tax_img,,,,,60.0885073658,stim/pants.jpg,stim/shoe.jpg,stim/cake.jpg,8070,3.0,0.0,0.0,0.0,,,0.0,down,2.71773910522,1,sock,stim/sock.jpg,pants,shoe,cake
taxonomic,,,,tax,them,dist,left,2018_Nov_05_1425,taxthemexp_tax_img,,,,,60.0885073658,stim/coffeemaker.jpg,stim/stove.jpg,stim/doorknob.jpg,8070,0.0,1.0,0.0,1.0,,,1.0,left,2.4854798316999998,1,kettle,stim/kettle.jpg,coffee maker,stove,doorknob
taxonomic,,,,dist,tax,them,down,2018_Nov_05_1425,taxthemexp_tax_img,,,,,60.0885073658,stim/yarn.jpg,stim/train.jpg,stim/stopsign.jpg,8070,5.0,2.0,0.0,2.0,,,1.0,down,0.9679930210109999,1,car,stim/car.jpg,yarn,train,stopsign
taxonomic,,,,them,dist,tax,right,2018_Nov_05_1425,taxthemexp_tax_img,,,,,60.0885073658,stim/bread.jpg,stim/trumpet.jpg,stim/microwave.jpg,8070,4.0,3.0,0.0,3.0,,,1.0,right,1.500633955,1,toaster,stim/toaster.jpg,bread,trumpet,microwave
taxonomic,,,,them,dist,tax,right,2018_Nov_05_1425,taxthemexp_tax_img,,,,,60.0885073658,stim/tree.jpg,stim/guitar.jpg,stim/turtle.jpg,8070,1.0,4.0,0.0,4.0,,,1.0,right,1.2030670642899999,1,bird,stim/cardinal.jpg,tree,guitar,turtle
taxonomic,,,,dist,tax,them,down,2018_Nov_05_1425,taxthemexp_tax_img,,,,,60.0885073658,stim/grapes.jpg,stim/handcuffs.jpg,stim/key.jpg,8070,2.0,5.0,0.0,5.0,,,1.0,down,4.9530570507,1,lock,stim/lock.jpg,grapes,handcuffs,key
taxonomic,,,,,,,,2018_Nov_05_1425,taxthemexp_tax_img,,,,,60.0885073658,,,,8070,,,,,space,3.92084813118,,,,1,,,,,
taxonomic,,,,dist,tax,them,down,2018_Nov_05_1425,taxthemexp_tax_img,10.0,0.0,0.0,0.0,60.0885073658,stim/ribbon.jpg,stim/croissant.jpg,stim/pan.jpg,8070,,,,,,,1.0,down,1.6012039184600002,1,eggs,stim/eggs.jpg,ribbon,croissant,pan
taxonomic,,,,tax,them,dist,left,2018_Nov_05_1425,taxthemexp_tax_img,20.0,1.0,0.0,1.0,60.0885073658,stim/shredder.jpg,stim/desk.jpg,stim/wheelchair.jpg,8070,,,,,,,1.0,left,1.58384990692,1,printer,stim/printer.jpg,shredder,desk,wheelchair
taxonomic,,,,dist,tax,them,down,2018_Nov_05_1425,taxthemexp_tax_img,4.0,2.0,0.0,2.0,60.0885073658,stim/foodprocessor.jpg,stim/easel.jpg,stim/ruler.jpg,8070,,,,,,,0.0,right,1.46964097023,1,blackboard,stim/blackboard.jpg,food processor,easel,ruler
taxonomic,,,,them,dist,tax,right,2018_Nov_05_1425,taxthemexp_tax_img,12.0,3.0,0.0,3.0,60.0885073658,stim/hairbrush.jpg,stim/golfball.jpg,stim/scrunchie.jpg,8070,,,,,,,1.0,right,2.66847300529,1,headband,stim/headband.jpg,hairbrush,golfball,scrunchie
taxonomic,,,,them,dist,tax,right,2018_Nov_05_1425,taxthemexp_tax_img,22.0,4.0,0.0,4.0,60.0885073658,stim/sewingmachine.jpg,stim/watch.jpg,stim/yarn.jpg,8070,,,,,,,1.0,right,0.750377893448,1,string,stim/string.jpg,sewing machine,watch,yarn
taxonomic,,,,dist,tax,them,down,2018_Nov_05_1425,taxthemexp_tax_img,14.0,5.0,0.0,5.0,60.0885073658,stim/camel.jpg,stim/sword.jpg,stim/cuttingboard.jpg,8070,,,,,,,1.0,down,1.8364551067400003,1,knife,stim/knife.jpg,camel,sword,cutting board
taxonomic,,,,tax,them,dist,left,2018_Nov_05_1425,taxthemexp_tax_img,13.0,6.0,0.0,6.0,60.0885073658,stim/clarinet.jpg,stim/musicstand.jpg,stim/chips.jpg,8070,,,,,,,1.0,left,0.717370033264,1,horn,stim/horn.jpg,clarinet,music stand,chips
taxonomic,,,,them,tax,dist,down,2018_Nov_05_1425,taxthemexp_tax_img,2.0,7.0,0.0,7.0,60.0885073658,stim/ball.jpg,stim/racket.jpg,stim/dresser.jpg,8070,,,,,,,1.0,down,1.3692891597699999,1,bat,stim/bat.jpg,ball,racket,dresser
taxonomic,,,,tax,them,dist,left,2018_Nov_05_1425,taxthemexp_tax_img,7.0,8.0,0.0,8.0,60.0885073658,stim/pipe.jpg,stim/cigarettecutter.jpg,stim/tissuebox.jpg,8070,,,,,,,1.0,left,1.5687549114200001,1,cigarette,stim/cigarette.jpg,pipe,cigarette cutter,tissue box
taxonomic,,,,them,dist,tax,right,2018_Nov_05_1425,taxthemexp_tax_img,6.0,9.0,0.0,9.0,60.0885073658,stim/peanut.jpg,stim/mixer.jpg,stim/cat.jpg,8070,,,,,,,1.0,right,2.07049798965,1,chipmunk,stim/chipmunk.jpg,peanut,mixer,cat
taxonomic,,,,tax,them,dist,left,2018_Nov_05_1425,taxthemexp_tax_img,0.0,10.0,0.0,10.0,60.0885073658,stim/canoe.jpg,stim/neckpillow.jpg,stim/duck.jpg,8070,,,,,,,1.0,left,1.36805820465,1,airplane,stim/airplane.jpg,canoe,neck pillow,duck
taxonomic,,,,them,dist,tax,right,2018_Nov_05_1425,taxthemexp_tax_img,17.0,11.0,0.0,11.0,60.0885073658,stim/helmet.jpg,stim/umbrella.jpg,stim/car.jpg,8070,,,,,,,1.0,right,1.21861791611,1,motorcycle,stim/motorcycle.jpg,helmet,umbrella,car
taxonomic,,,,tax,dist,them,left,2018_Nov_05_1425,taxthemexp_tax_img,15.0,12.0,0.0,12.0,60.0885073658,stim/candle.jpg,stim/mailbox.jpg,stim/table.jpg,8070,,,,,,,1.0,left,1.4365041256,1,lamp,stim/lamp.jpg,candle,mailbox,table
taxonomic,,,,dist,tax,them,down,2018_Nov_05_1425,taxthemexp_tax_img,3.0,13.0,0.0,13.0,60.0885073658,stim/bell.jpg,stim/microscope.jpg,stim/puffin.jpg,8070,,,,,,,1.0,down,1.23455309868,1,binoculars,stim/binoculars.jpg,bell,microscope,puffin
taxonomic,,,,tax,dist,them,left,2018_Nov_05_1425,taxthemexp_tax_img,19.0,14.0,0.0,14.0,60.0885073658,stim/pen.jpg,stim/rooster.jpg,stim/easel.jpg,8070,,,,,,,1.0,left,1.71843910217,1,paintbrush,stim/paintbrush.jpg,pen,rooster,easel
taxonomic,,,,them,dist,tax,right,2018_Nov_05_1425,taxthemexp_tax_img,9.0,15.0,0.0,15.0,60.0885073658,stim/juice.jpg,stim/ironboard.jpg,stim/mug.jpg,8070,,,,,,,1.0,right,2.4032380580900004,1,cup,stim/cup.jpg,juice,ironing board,mug
taxonomic,,,,dist,tax,them,down,2018_Nov_05_1425,taxthemexp_tax_img,5.0,16.0,0.0,16.0,60.0885073658,stim/chessboard.jpg,stim/icecream.jpg,stim/cheesegrater.jpg,8070,,,,,,,1.0,down,0.951545000076,1,cheese,stim/cheese.jpg,chessboard,ice cream,cheese grater
taxonomic,,,,dist,tax,them,down,2018_Nov_05_1425,taxthemexp_tax_img,18.0,17.0,0.0,17.0,60.0885073658,stim/saltshaker.jpg,stim/ring.jpg,stim/jewellerybox.jpg,8070,,,,,,,1.0,down,1.0035510063200002,1,necklace,stim/necklace.jpg,saltshaker,ring,jewellery box
taxonomic,,,,them,dist,tax,right,2018_Nov_05_1425,taxthemexp_tax_img,21.0,18.0,0.0,18.0,60.0885073658,stim/chips.jpg,stim/seashell.jpg,stim/juice.jpg,8070,,,,,,,1.0,right,0.835115909576,1,soda,stim/soda.jpg,chips,seashell,juice
taxonomic,,,,tax,them,dist,left,2018_Nov_05_1425,taxthemexp_tax_img,11.0,19.0,0.0,19.0,60.0885073658,stim/spoon.jpg,stim/plate.jpg,stim/purse.jpg,8070,,,,,,,1.0,left,0.652616024017,1,fork,stim/fork.jpg,spoon,plate,purse
taxonomic,,,,them,dist,tax,right,2018_Nov_05_1425,taxthemexp_tax_img,8.0,20.0,0.0,20.0,60.0885073658,stim/wine.jpg,stim/peanut.jpg,stim/peeler.jpg,8070,,,,,,,1.0,right,2.55176997185,1,corkscrew,stim/corkscrew.jpg,wine,peanut,peeler
taxonomic,,,,tax,them,dist,left,2018_Nov_05_1425,taxthemexp_tax_img,1.0,21.0,0.0,21.0,60.0885073658,stim/dumbbell.jpg,stim/lifejacket.jpg,stim/antelope.jpg,8070,,,,,,,1.0,left,3.50127291679,1,anchor,stim/anchor.jpg,weight,life jacket,antelope
taxonomic,,,,dist,tax,them,down,2018_Nov_05_1425,taxthemexp_tax_img,16.0,22.0,0.0,22.0,60.0885073658,stim/calculator.jpg,stim/duster.jpg,stim/bucket.jpg,8070,,,,,,,1.0,down,1.5673539638499998,1,mop,stim/mop.jpg,calculator,duster,bucket
taxonomic,,,,them,dist,tax,right,2018_Nov_05_1425,taxthemexp_tax_img,23.0,23.0,0.0,23.0,60.0885073658,stim/suit.jpg,stim/snowglobe.jpg,stim/basket.jpg,8070,,,,,,,1.0,right,4.5029959678600004,1,suitcase,stim/suitcase.jpg,suit,snowglobe,basket
thematic,,,,them,dist,tax,left,2018_Oct_15_0802,taxthemexp_tax_img,,,,,59.958200984099996,stim/bread.jpg,stim/trumpet.jpg,stim/microwave.jpg,8006,4.0,0.0,0.0,0.0,,,0.0,right,3.88628697395,1,toaster,stim/toaster.jpg,bread,trumpet,microwave
thematic,,,,dist,tax,them,right,2018_Oct_15_0802,taxthemexp_tax_img,,,,,59.958200984099996,stim/grapes.jpg,stim/handcuffs.jpg,stim/key.jpg,8006,2.0,1.0,0.0,1.0,,,1.0,right,0.9836759567260001,1,lock,stim/lock.jpg,grapes,handcuffs,key
thematic,,,,tax,them,dist,down,2018_Oct_15_0802,taxthemexp_tax_img,,,,,59.958200984099996,stim/coffeemaker.jpg,stim/stove.jpg,stim/doorknob.jpg,8006,0.0,2.0,0.0,2.0,,,1.0,down,3.7511560916900004,1,kettle,stim/kettle.jpg,coffee maker,stove,doorknob
thematic,,,,dist,tax,them,right,2018_Oct_15_0802,taxthemexp_tax_img,,,,,59.958200984099996,stim/yarn.jpg,stim/train.jpg,stim/stopsign.jpg,8006,5.0,3.0,0.0,3.0,,,1.0,right,1.35085391998,1,car,stim/car.jpg,yarn,train,stopsign
thematic,,,,them,dist,tax,left,2018_Oct_15_0802,taxthemexp_tax_img,,,,,59.958200984099996,stim/tree.jpg,stim/guitar.jpg,stim/turtle.jpg,8006,1.0,4.0,0.0,4.0,,,1.0,left,1.26954889297,1,bird,stim/cardinal.jpg,tree,guitar,turtle
thematic,,,,tax,them,dist,down,2018_Oct_15_0802,taxthemexp_tax_img,,,,,59.958200984099996,stim/pants.jpg,stim/shoe.jpg,stim/cake.jpg,8006,3.0,5.0,0.0,5.0,,,1.0,down,1.23480296135,1,sock,stim/sock.jpg,pants,shoe,cake
thematic,,,,,,,,2018_Oct_15_0802,taxthemexp_tax_img,,,,,59.958200984099996,,,,8006,,,,,space,4.8041489124300005,,,,1,,,,,
thematic,,,,dist,tax,them,right,2018_Oct_15_0802,taxthemexp_tax_img,16.0,0.0,0.0,0.0,59.958200984099996,stim/mirror.jpg,stim/shotglass.jpg,stim/winebottle.jpg,8006,,,,,,,1.0,right,1.33644413948,1,wine glass,stim/wineglass.jpg,mirror,shotglass,wine bottle
thematic,,,,them,dist,tax,left,2018_Oct_15_0802,taxthemexp_tax_img,13.0,1.0,0.0,1.0,59.958200984099996,stim/binder.jpg,stim/balloon.jpg,stim/purse.jpg,8006,,,,,,,1.0,left,1.2683579921700001,1,backpack,stim/backpack.jpg,binder,balloon,purse
thematic,,,,tax,dist,them,right,2018_Oct_15_0802,taxthemexp_tax_img,23.0,2.0,0.0,2.0,59.958200984099996,stim/croissant.jpg,stim/crib.jpg,stim/stove.jpg,8006,,,,,,,1.0,right,1.58528089523,1,pie,stim/pie.jpg,croissant,crib,stove
thematic,,,,tax,them,dist,down,2018_Oct_15_0802,taxthemexp_tax_img,5.0,3.0,0.0,3.0,59.958200984099996,stim/fridge.jpg,stim/dietcoke.jpg,stim/camera.jpg,8006,,,,,,,1.0,down,0.785320043564,1,cooler,stim/cooler.jpg,fridge,diet coke,camera
thematic,,,,dist,tax,them,right,2018_Oct_15_0802,taxthemexp_tax_img,22.0,4.0,0.0,4.0,59.958200984099996,stim/flashlight.jpg,stim/hair.jpg,stim/toothbrush.jpg,8006,,,,,,,1.0,right,1.4836900234200001,1,teeth,stim/teeth.jpg,flashlight,hair,toothbrush
thematic,,,,dist,tax,them,right,2018_Oct_15_0802,taxthemexp_tax_img,19.0,5.0,0.0,5.0,59.958200984099996,stim/kayak.jpg,stim/armyguy.jpg,stim/dollhouse.jpg,8006,,,,,,,1.0,right,1.28439307213,1,doll,stim/doll.jpg,kayak,army guy,dollhouse
thematic,,,,dist,tax,them,right,2018_Oct_15_0802,taxthemexp_tax_img,21.0,6.0,0.0,6.0,59.958200984099996,stim/lipstick.jpg,stim/radio.jpg,stim/speakers.jpg,8006,,,,,,,1.0,right,2.28393912315,1,record player,stim/recordplayer.jpg,lipstick,radio,speakers
thematic,,,,them,dist,tax,left,2018_Oct_15_0802,taxthemexp_tax_img,11.0,7.0,0.0,7.0,59.958200984099996,stim/hanger.jpg,stim/scissors.jpg,stim/skirt.jpg,8006,,,,,,,1.0,left,1.9689888954199999,1,suit,stim/suit.jpg,hanger,scissors,skirt
thematic,,,,them,dist,tax,left,2018_Oct_15_0802,taxthemexp_tax_img,7.0,8.0,0.0,8.0,59.958200984099996,stim/bullet.jpg,stim/starfish.jpg,stim/sword.jpg,8006,,,,,,,1.0,left,3.58669400215,1,gun,stim/gun.jpg,bullet,starfish,sword
thematic,,,,them,tax,dist,left,2018_Oct_15_0802,taxthemexp_tax_img,6.0,9.0,0.0,9.0,59.958200984099996,stim/cork.jpg,stim/bottleopener.jpg,stim/globe.jpg,8006,,,,,,,1.0,left,1.4351770877799999,1,corkscrew,stim/corkscrew2.jpg,cork,bottle opener,globe
thematic,,,,tax,them,dist,down,2018_Oct_15_0802,taxthemexp_tax_img,4.0,10.0,0.0,10.0,59.958200984099996,stim/exercisebike.jpg,stim/dumbbell.jpg,stim/goggles.jpg,8006,,,,,,,1.0,down,1.20179104805,1,exercise bench,stim/exercisebench.jpg,exercise bike,dumbbell,goggles
thematic,,,,tax,them,dist,down,2018_Oct_15_0802,taxthemexp_tax_img,2.0,11.0,0.0,11.0,59.958200984099996,stim/stool.jpg,stim/lightbulb.jpg,stim/tire.jpg,8006,,,,,,,1.0,down,4.60260987282,1,ladder,stim/ladder.jpg,stool,lightbulb,tire
thematic,,,,tax,dist,them,right,2018_Oct_15_0802,taxthemexp_tax_img,20.0,12.0,0.0,12.0,59.958200984099996,stim/skateboard.jpg,stim/lawnmower.jpg,stim/skatehelmet.jpg,8006,,,,,,,1.0,right,1.4005091190299999,1,rollerblades,stim/rollerblades.jpg,skateboard,lawnmower,helmet
thematic,,,,dist,them,tax,down,2018_Oct_15_0802,taxthemexp_tax_img,1.0,13.0,0.0,13.0,59.958200984099996,stim/thimble.jpg,stim/log.jpg,stim/shovel.jpg,8006,,,,,,,1.0,down,2.370262146,1,axe,stim/axe.jpg,thimble,log,shovel
thematic,,,,dist,them,tax,down,2018_Oct_15_0802,taxthemexp_tax_img,14.0,14.0,0.0,14.0,59.958200984099996,stim/fishhook.jpg,stim/rug.jpg,stim/duster.jpg,8006,,,,,,,1.0,down,0.9352669715880001,1,vacuum,stim/vacuum.jpg,fishhook,rug,duster
thematic,,,,dist,tax,them,right,2018_Oct_15_0802,taxthemexp_tax_img,15.0,15.0,0.0,15.0,59.958200984099996,stim/slinky.jpg,stim/basket.jpg,stim/shirt.jpg,8006,,,,,,,1.0,right,1.31924390793,1,laundry basket,stim/laundrybasket.jpg,slinky,basket,shirt
thematic,,,,them,dist,tax,left,2018_Oct_15_0802,taxthemexp_tax_img,8.0,16.0,0.0,16.0,59.958200984099996,stim/cashregister.jpg,stim/lunchbox.jpg,stim/coin.jpg,8006,,,,,,,1.0,left,2.1015489101400004,1,money,stim/money.jpg,cash register,lunchbox,coin
thematic,,,,dist,them,tax,down,2018_Oct_15_0802,taxthemexp_tax_img,17.0,17.0,0.0,17.0,59.958200984099996,stim/lightswitch.jpg,stim/file.jpg,stim/dresser.jpg,8006,,,,,,,1.0,down,1.2173039913200001,1,file cabinet,stim/filecabinet.jpg,lightswitch,file,dresser
thematic,,,,them,dist,tax,left,2018_Oct_15_0802,taxthemexp_tax_img,10.0,18.0,0.0,18.0,59.958200984099996,stim/lighter.jpg,stim/clock.jpg,stim/lantern.jpg,8006,,,,,,,1.0,left,1.48675704002,1,candle,stim/candle.jpg,lighter,clock,lantern
thematic,,,,them,dist,tax,left,2018_Oct_15_0802,taxthemexp_tax_img,12.0,19.0,0.0,19.0,59.958200984099996,stim/cup.jpg,stim/button.jpg,stim/stroller.jpg,8006,,,,,,,1.0,left,1.7352030277300001,1,highchair,stim/highchair.jpg,cup,button,stroller
thematic,,,,tax,them,dist,down,2018_Oct_15_0802,taxthemexp_tax_img,0.0,20.0,0.0,20.0,59.958200984099996,stim/peeler.jpg,stim/pasta.jpg,stim/receipt.jpg,8006,,,,,,,1.0,down,0.6851739883419999,1,strainer,stim/strainer.jpg,peeler,pasta,receipt
thematic,,,,tax,dist,them,right,2018_Oct_15_0802,taxthemexp_tax_img,18.0,21.0,0.0,21.0,59.958200984099996,stim/ham.jpg,stim/remote.jpg,stim/grill.jpg,8006,,,,,,,1.0,right,1.5015690326700002,1,steak,stim/steak.jpg,ham,remote,grill
thematic,,,,dist,them,tax,down,2018_Oct_15_0802,taxthemexp_tax_img,3.0,22.0,0.0,22.0,59.958200984099996,stim/hairdryer.jpg,stim/leash.jpg,stim/cat.jpg,8006,,,,,,,1.0,down,2.06726193428,1,dog,stim/dog.jpg,hairdryer,leash,cat
thematic,,,,them,dist,tax,left,2018_Oct_15_0802,taxthemexp_tax_img,9.0,23.0,0.0,23.0,59.958200984099996,stim/birdcage.jpg,stim/skates.jpg,stim/butterfly.jpg,8006,,,,,,,1.0,left,0.7182950973510001,1,parrot,stim/parrot.jpg,bird cage,skates,butterfly
thematic,,,,them,dist,tax,left,2018_Nov_26_1531,taxthemexp_tax_img,,,,,59.9261621461,stim/tree.jpg,stim/guitar.jpg,stim/turtle.jpg,8119,1.0,0.0,0.0,0.0,,,1.0,left,1.7190790176400004,2,bird,stim/cardinal.jpg,tree,guitar,turtle
thematic,,,,tax,them,dist,down,2018_Nov_26_1531,taxthemexp_tax_img,,,,,59.9261621461,stim/pants.jpg,stim/shoe.jpg,stim/cake.jpg,8119,3.0,1.0,0.0,1.0,,,1.0,down,0.6844379901890001,2,sock,stim/sock.jpg,pants,shoe,cake
thematic,,,,dist,tax,them,right,2018_Nov_26_1531,taxthemexp_tax_img,,,,,59.9261621461,stim/yarn.jpg,stim/train.jpg,stim/stopsign.jpg,8119,5.0,2.0,0.0,2.0,,,1.0,right,0.551233053207,2,car,stim/car.jpg,yarn,train,stopsign
thematic,,,,them,dist,tax,left,2018_Nov_26_1531,taxthemexp_tax_img,,,,,59.9261621461,stim/bread.jpg,stim/trumpet.jpg,stim/microwave.jpg,8119,4.0,3.0,0.0,3.0,,,0.0,right,0.802312135696,2,toaster,stim/toaster.jpg,bread,trumpet,microwave
thematic,,,,tax,them,dist,down,2018_Nov_26_1531,taxthemexp_tax_img,,,,,59.9261621461,stim/coffeemaker.jpg,stim/stove.jpg,stim/doorknob.jpg,8119,0.0,4.0,0.0,4.0,,,0.0,left,1.3516550064100001,2,kettle,stim/kettle.jpg,coffee maker,stove,doorknob
thematic,,,,dist,tax,them,right,2018_Nov_26_1531,taxthemexp_tax_img,,,,,59.9261621461,stim/grapes.jpg,stim/handcuffs.jpg,stim/key.jpg,8119,2.0,5.0,0.0,5.0,,,1.0,right,1.56849002838,2,lock,stim/lock.jpg,grapes,handcuffs,key
thematic,,,,,,,,2018_Nov_26_1531,taxthemexp_tax_img,,,,,59.9261621461,,,,8119,,,,,space,6.687459945680001,,,,2,,,,,
thematic,,,,them,dist,tax,left,2018_Nov_26_1531,taxthemexp_tax_img,8.0,0.0,0.0,0.0,59.9261621461,stim/cashregister.jpg,stim/lunchbox.jpg,stim/coin.jpg,8119,,,,,,,0.0,right,2.6860630512199997,2,money,stim/money.jpg,cash register,lunchbox,coin
thematic,,,,them,dist,tax,left,2018_Nov_26_1531,taxthemexp_tax_img,11.0,1.0,0.0,1.0,59.9261621461,stim/hanger.jpg,stim/scissors.jpg,stim/skirt.jpg,8119,,,,,,,0.0,right,1.46973013878,2,suit,stim/suit.jpg,hanger,scissors,skirt
thematic,,,,dist,them,tax,down,2018_Nov_26_1531,taxthemexp_tax_img,17.0,2.0,0.0,2.0,59.9261621461,stim/lightswitch.jpg,stim/file.jpg,stim/dresser.jpg,8119,,,,,,,1.0,down,1.90213108063,2,file cabinet,stim/filecabinet.jpg,lightswitch,file,dresser
thematic,,,,tax,them,dist,down,2018_Nov_26_1531,taxthemexp_tax_img,4.0,3.0,0.0,3.0,59.9261621461,stim/exercisebike.jpg,stim/dumbbell.jpg,stim/goggles.jpg,8119,,,,,,,1.0,down,1.9010469913499999,2,exercise bench,stim/exercisebench.jpg,exercise bike,dumbbell,goggles
thematic,,,,dist,tax,them,right,2018_Nov_26_1531,taxthemexp_tax_img,22.0,4.0,0.0,4.0,59.9261621461,stim/flashlight.jpg,stim/hair.jpg,stim/toothbrush.jpg,8119,,,,,,,1.0,right,1.06836104393,2,teeth,stim/teeth.jpg,flashlight,hair,toothbrush
thematic,,,,tax,dist,them,right,2018_Nov_26_1531,taxthemexp_tax_img,23.0,5.0,0.0,5.0,59.9261621461,stim/croissant.jpg,stim/crib.jpg,stim/stove.jpg,8119,,,,,,,1.0,right,2.05101108551,2,pie,stim/pie.jpg,croissant,crib,stove
thematic,,,,them,tax,dist,left,2018_Nov_26_1531,taxthemexp_tax_img,6.0,6.0,0.0,6.0,59.9261621461,stim/cork.jpg,stim/bottleopener.jpg,stim/globe.jpg,8119,,,,,,,1.0,left,1.7022449970200002,2,corkscrew,stim/corkscrew2.jpg,cork,bottle opener,globe
thematic,,,,dist,tax,them,right,2018_Nov_26_1531,taxthemexp_tax_img,19.0,7.0,0.0,7.0,59.9261621461,stim/kayak.jpg,stim/armyguy.jpg,stim/dollhouse.jpg,8119,,,,,,,1.0,right,1.38592004776,2,doll,stim/doll.jpg,kayak,army guy,dollhouse
thematic,,,,them,dist,tax,left,2018_Nov_26_1531,taxthemexp_tax_img,7.0,8.0,0.0,8.0,59.9261621461,stim/bullet.jpg,stim/starfish.jpg,stim/sword.jpg,8119,,,,,,,1.0,left,1.1504831314100001,2,gun,stim/gun.jpg,bullet,starfish,sword
thematic,,,,dist,tax,them,right,2018_Nov_26_1531,taxthemexp_tax_img,16.0,9.0,0.0,9.0,59.9261621461,stim/mirror.jpg,stim/shotglass.jpg,stim/winebottle.jpg,8119,,,,,,,1.0,right,0.734576940536,2,wine glass,stim/wineglass.jpg,mirror,shotglass,wine bottle
thematic,,,,dist,tax,them,right,2018_Nov_26_1531,taxthemexp_tax_img,21.0,10.0,0.0,10.0,59.9261621461,stim/lipstick.jpg,stim/radio.jpg,stim/speakers.jpg,8119,,,,,,,1.0,right,3.2845740318299996,2,record player,stim/recordplayer.jpg,lipstick,radio,speakers
thematic,,,,dist,them,tax,down,2018_Nov_26_1531,taxthemexp_tax_img,14.0,11.0,0.0,11.0,59.9261621461,stim/fishhook.jpg,stim/rug.jpg,stim/duster.jpg,8119,,,,,,,1.0,down,1.00220608711,2,vacuum,stim/vacuum.jpg,fishhook,rug,duster
thematic,,,,dist,tax,them,right,2018_Nov_26_1531,taxthemexp_tax_img,15.0,12.0,0.0,12.0,59.9261621461,stim/slinky.jpg,stim/basket.jpg,stim/shirt.jpg,8119,,,,,,,1.0,right,0.7681658267970001,2,laundry basket,stim/laundrybasket.jpg,slinky,basket,shirt
thematic,,,,tax,them,dist,down,2018_Nov_26_1531,taxthemexp_tax_img,0.0,13.0,0.0,13.0,59.9261621461,stim/peeler.jpg,stim/pasta.jpg,stim/receipt.jpg,8119,,,,,,,1.0,down,0.7004098892209999,2,strainer,stim/strainer.jpg,peeler,pasta,receipt
thematic,,,,them,dist,tax,left,2018_Nov_26_1531,taxthemexp_tax_img,13.0,14.0,0.0,14.0,59.9261621461,stim/binder.jpg,stim/balloon.jpg,stim/purse.jpg,8119,,,,,,,1.0,left,1.4353580474899998,2,backpack,stim/backpack.jpg,binder,balloon,purse
thematic,,,,dist,them,tax,down,2018_Nov_26_1531,taxthemexp_tax_img,1.0,15.0,0.0,15.0,59.9261621461,stim/thimble.jpg,stim/log.jpg,stim/shovel.jpg,8119,,,,,,,1.0,down,0.8346471786499999,2,axe,stim/axe.jpg,thimble,log,shovel
thematic,,,,dist,them,tax,down,2018_Nov_26_1531,taxthemexp_tax_img,3.0,16.0,0.0,16.0,59.9261621461,stim/hairdryer.jpg,stim/leash.jpg,stim/cat.jpg,8119,,,,,,,1.0,down,1.03529214859,2,dog,stim/dog.jpg,hairdryer,leash,cat
thematic,,,,tax,them,dist,down,2018_Nov_26_1531,taxthemexp_tax_img,5.0,17.0,0.0,17.0,59.9261621461,stim/fridge.jpg,stim/dietcoke.jpg,stim/camera.jpg,8119,,,,,,,1.0,down,1.71628904343,2,cooler,stim/cooler.jpg,fridge,diet coke,camera
thematic,,,,them,dist,tax,left,2018_Nov_26_1531,taxthemexp_tax_img,9.0,18.0,0.0,18.0,59.9261621461,stim/birdcage.jpg,stim/skates.jpg,stim/butterfly.jpg,8119,,,,,,,1.0,left,0.701667070389,2,parrot,stim/parrot.jpg,bird cage,skates,butterfly
thematic,,,,tax,dist,them,right,2018_Nov_26_1531,taxthemexp_tax_img,18.0,19.0,0.0,19.0,59.9261621461,stim/ham.jpg,stim/remote.jpg,stim/grill.jpg,8119,,,,,,,1.0,right,1.10138106346,2,steak,stim/steak.jpg,ham,remote,grill
thematic,,,,them,dist,tax,left,2018_Nov_26_1531,taxthemexp_tax_img,10.0,20.0,0.0,20.0,59.9261621461,stim/lighter.jpg,stim/clock.jpg,stim/lantern.jpg,8119,,,,,,,0.0,right,1.2683930397,2,candle,stim/candle.jpg,lighter,clock,lantern
thematic,,,,tax,dist,them,right,2018_Nov_26_1531,taxthemexp_tax_img,20.0,21.0,0.0,21.0,59.9261621461,stim/skateboard.jpg,stim/lawnmower.jpg,stim/skatehelmet.jpg,8119,,,,,,,1.0,right,1.36837697029,2,rollerblades,stim/rollerblades.jpg,skateboard,lawnmower,helmet
thematic,,,,them,dist,tax,left,2018_Nov_26_1531,taxthemexp_tax_img,12.0,22.0,0.0,22.0,59.9261621461,stim/cup.jpg,stim/button.jpg,stim/stroller.jpg,8119,,,,,,,0.0,right,1.25334811211,2,highchair,stim/highchair.jpg,cup,button,stroller
thematic,,,,tax,them,dist,down,2018_Nov_26_1531,taxthemexp_tax_img,2.0,23.0,0.0,23.0,59.9261621461,stim/stool.jpg,stim/lightbulb.jpg,stim/tire.jpg,8119,,,,,,,1.0,down,3.0193080902099996,2,ladder,stim/ladder.jpg,stool,lightbulb,tire
taxonomic,,,,dist,tax,them,down,2018_Oct_24_1401,taxthemexp_tax_img,,,,,59.811821746899994,stim/yarn.jpg,stim/train.jpg,stim/stopsign.jpg,8040,5.0,0.0,0.0,0.0,,,1.0,down,8.285682916639999,1,car,stim/car.jpg,yarn,train,stopsign
taxonomic,,,,dist,tax,them,down,2018_Oct_24_1401,taxthemexp_tax_img,,,,,59.811821746899994,stim/grapes.jpg,stim/handcuffs.jpg,stim/key.jpg,8040,2.0,1.0,0.0,1.0,,,0.0,right,1.36799716949,1,lock,stim/lock.jpg,grapes,handcuffs,key
taxonomic,,,,them,dist,tax,right,2018_Oct_24_1401,taxthemexp_tax_img,,,,,59.811821746899994,stim/tree.jpg,stim/guitar.jpg,stim/turtle.jpg,8040,1.0,2.0,0.0,2.0,,,0.0,left,3.26918005943,1,bird,stim/cardinal.jpg,tree,guitar,turtle
taxonomic,,,,them,dist,tax,right,2018_Oct_24_1401,taxthemexp_tax_img,,,,,59.811821746899994,stim/bread.jpg,stim/trumpet.jpg,stim/microwave.jpg,8040,4.0,3.0,0.0,3.0,,,1.0,right,4.485759019850001,1,toaster,stim/toaster.jpg,bread,trumpet,microwave
taxonomic,,,,tax,them,dist,left,2018_Oct_24_1401,taxthemexp_tax_img,,,,,59.811821746899994,stim/coffeemaker.jpg,stim/stove.jpg,stim/doorknob.jpg,8040,0.0,4.0,0.0,4.0,,,1.0,left,3.3512728214300003,1,kettle,stim/kettle.jpg,coffee maker,stove,doorknob
taxonomic,,,,tax,them,dist,left,2018_Oct_24_1401,taxthemexp_tax_img,,,,,59.811821746899994,stim/pants.jpg,stim/shoe.jpg,stim/cake.jpg,8040,3.0,5.0,0.0,5.0,,,1.0,left,3.05330896378,1,sock,stim/sock.jpg,pants,shoe,cake
taxonomic,,,,,,,,2018_Oct_24_1401,taxthemexp_tax_img,,,,,59.811821746899994,,,,8040,,,,,space,8.42264509201,,,,1,,,,,
taxonomic,,,,tax,them,dist,left,2018_Oct_24_1401,taxthemexp_tax_img,1.0,0.0,0.0,0.0,59.811821746899994,stim/dumbbell.jpg,stim/lifejacket.jpg,stim/antelope.jpg,8040,,,,,,,1.0,left,4.753407001499999,1,anchor,stim/anchor.jpg,weight,life jacket,antelope
taxonomic,,,,tax,them,dist,left,2018_Oct_24_1401,taxthemexp_tax_img,11.0,1.0,0.0,1.0,59.811821746899994,stim/spoon.jpg,stim/plate.jpg,stim/purse.jpg,8040,,,,,,,1.0,left,1.40314507484,1,fork,stim/fork.jpg,spoon,plate,purse
taxonomic,,,,tax,them,dist,left,2018_Oct_24_1401,taxthemexp_tax_img,13.0,2.0,0.0,2.0,59.811821746899994,stim/clarinet.jpg,stim/musicstand.jpg,stim/chips.jpg,8040,,,,,,,1.0,left,1.2183339595799998,1,horn,stim/horn.jpg,clarinet,music stand,chips
taxonomic,,,,tax,them,dist,left,2018_Oct_24_1401,taxthemexp_tax_img,0.0,3.0,0.0,3.0,59.811821746899994,stim/canoe.jpg,stim/neckpillow.jpg,stim/duck.jpg,8040,,,,,,,1.0,left,1.5174689292899999,1,airplane,stim/airplane.jpg,canoe,neck pillow,duck
taxonomic,,,,them,tax,dist,down,2018_Oct_24_1401,taxthemexp_tax_img,2.0,4.0,0.0,4.0,59.811821746899994,stim/ball.jpg,stim/racket.jpg,stim/dresser.jpg,8040,,,,,,,1.0,down,2.3365149497999997,1,bat,stim/bat.jpg,ball,racket,dresser
taxonomic,,,,them,dist,tax,right,2018_Oct_24_1401,taxthemexp_tax_img,21.0,5.0,0.0,5.0,59.811821746899994,stim/chips.jpg,stim/seashell.jpg,stim/juice.jpg,8040,,,,,,,1.0,right,0.851957082748,1,soda,stim/soda.jpg,chips,seashell,juice
taxonomic,,,,dist,tax,them,down,2018_Oct_24_1401,taxthemexp_tax_img,10.0,6.0,0.0,6.0,59.811821746899994,stim/ribbon.jpg,stim/croissant.jpg,stim/pan.jpg,8040,,,,,,,1.0,down,2.10228610039,1,eggs,stim/eggs.jpg,ribbon,croissant,pan
taxonomic,,,,dist,tax,them,down,2018_Oct_24_1401,taxthemexp_tax_img,14.0,7.0,0.0,7.0,59.811821746899994,stim/camel.jpg,stim/sword.jpg,stim/cuttingboard.jpg,8040,,,,,,,1.0,down,1.61769604683,1,knife,stim/knife.jpg,camel,sword,cutting board
taxonomic,,,,them,dist,tax,right,2018_Oct_24_1401,taxthemexp_tax_img,17.0,8.0,0.0,8.0,59.811821746899994,stim/helmet.jpg,stim/umbrella.jpg,stim/car.jpg,8040,,,,,,,1.0,right,0.7010669708249999,1,motorcycle,stim/motorcycle.jpg,helmet,umbrella,car
taxonomic,,,,dist,tax,them,down,2018_Oct_24_1401,taxthemexp_tax_img,16.0,9.0,0.0,9.0,59.811821746899994,stim/calculator.jpg,stim/duster.jpg,stim/bucket.jpg,8040,,,,,,,1.0,down,0.918414831161,1,mop,stim/mop.jpg,calculator,duster,bucket
taxonomic,,,,dist,tax,them,down,2018_Oct_24_1401,taxthemexp_tax_img,5.0,10.0,0.0,10.0,59.811821746899994,stim/chessboard.jpg,stim/icecream.jpg,stim/cheesegrater.jpg,8040,,,,,,,1.0,down,2.1841509342200003,1,cheese,stim/cheese.jpg,chessboard,ice cream,cheese grater
taxonomic,,,,tax,them,dist,left,2018_Oct_24_1401,taxthemexp_tax_img,7.0,11.0,0.0,11.0,59.811821746899994,stim/pipe.jpg,stim/cigarettecutter.jpg,stim/tissuebox.jpg,8040,,,,,,,1.0,left,1.78639316559,1,cigarette,stim/cigarette.jpg,pipe,cigarette cutter,tissue box
taxonomic,,,,them,dist,tax,right,2018_Oct_24_1401,taxthemexp_tax_img,6.0,12.0,0.0,12.0,59.811821746899994,stim/peanut.jpg,stim/mixer.jpg,stim/cat.jpg,8040,,,,,,,1.0,right,0.618539094925,1,chipmunk,stim/chipmunk.jpg,peanut,mixer,cat
taxonomic,,,,tax,dist,them,left,2018_Oct_24_1401,taxthemexp_tax_img,15.0,13.0,0.0,13.0,59.811821746899994,stim/candle.jpg,stim/mailbox.jpg,stim/table.jpg,8040,,,,,,,1.0,left,3.2856678962700006,1,lamp,stim/lamp.jpg,candle,mailbox,table
taxonomic,,,,them,dist,tax,right,2018_Oct_24_1401,taxthemexp_tax_img,9.0,14.0,0.0,14.0,59.811821746899994,stim/juice.jpg,stim/ironboard.jpg,stim/mug.jpg,8040,,,,,,,0.0,left,1.00219607353,1,cup,stim/cup.jpg,juice,ironing board,mug
taxonomic,,,,dist,tax,them,down,2018_Oct_24_1401,taxthemexp_tax_img,18.0,15.0,0.0,15.0,59.811821746899994,stim/saltshaker.jpg,stim/ring.jpg,stim/jewellerybox.jpg,8040,,,,,,,1.0,down,0.585376977921,1,necklace,stim/necklace.jpg,saltshaker,ring,jewellery box
taxonomic,,,,them,dist,tax,right,2018_Oct_24_1401,taxthemexp_tax_img,22.0,16.0,0.0,16.0,59.811821746899994,stim/sewingmachine.jpg,stim/watch.jpg,stim/yarn.jpg,8040,,,,,,,1.0,right,0.567528009415,1,string,stim/string.jpg,sewing machine,watch,yarn
taxonomic,,,,them,dist,tax,right,2018_Oct_24_1401,taxthemexp_tax_img,8.0,17.0,0.0,17.0,59.811821746899994,stim/wine.jpg,stim/peanut.jpg,stim/peeler.jpg,8040,,,,,,,0.0,left,0.785567045212,1,corkscrew,stim/corkscrew.jpg,wine,peanut,peeler
taxonomic,,,,dist,tax,them,down,2018_Oct_24_1401,taxthemexp_tax_img,4.0,18.0,0.0,18.0,59.811821746899994,stim/foodprocessor.jpg,stim/easel.jpg,stim/ruler.jpg,8040,,,,,,,0.0,right,4.91939020157,1,blackboard,stim/blackboard.jpg,food processor,easel,ruler
taxonomic,,,,tax,dist,them,left,2018_Oct_24_1401,taxthemexp_tax_img,19.0,19.0,0.0,19.0,59.811821746899994,stim/pen.jpg,stim/rooster.jpg,stim/easel.jpg,8040,,,,,,,1.0,left,1.4675221443200002,1,paintbrush,stim/paintbrush.jpg,pen,rooster,easel
taxonomic,,,,them,dist,tax,right,2018_Oct_24_1401,taxthemexp_tax_img,12.0,20.0,0.0,20.0,59.811821746899994,stim/hairbrush.jpg,stim/golfball.jpg,stim/scrunchie.jpg,8040,,,,,,,1.0,right,1.16838908195,1,headband,stim/headband.jpg,hairbrush,golfball,scrunchie
taxonomic,,,,dist,tax,them,down,2018_Oct_24_1401,taxthemexp_tax_img,3.0,21.0,0.0,21.0,59.811821746899994,stim/bell.jpg,stim/microscope.jpg,stim/puffin.jpg,8040,,,,,,,1.0,down,0.9014370441439999,1,binoculars,stim/binoculars.jpg,bell,microscope,puffin
taxonomic,,,,them,dist,tax,right,2018_Oct_24_1401,taxthemexp_tax_img,23.0,22.0,0.0,22.0,59.811821746899994,stim/suit.jpg,stim/snowglobe.jpg,stim/basket.jpg,8040,,,,,,,1.0,right,5.20286417007,1,suitcase,stim/suitcase.jpg,suit,snowglobe,basket
taxonomic,,,,tax,them,dist,left,2018_Oct_24_1401,taxthemexp_tax_img,20.0,23.0,0.0,23.0,59.811821746899994,stim/shredder.jpg,stim/desk.jpg,stim/wheelchair.jpg,8040,,,,,,,1.0,left,1.51730203629,1,printer,stim/printer.jpg,shredder,desk,wheelchair
thematic,,,,dist,tax,them,right,2018_Oct_18_1440,taxthemexp_tax_img,,,,,59.8562070983,stim/grapes.jpg,stim/handcuffs.jpg,stim/key.jpg,8020,2.0,0.0,0.0,0.0,,,1.0,right,3.9851620197300006,1,lock,stim/lock.jpg,grapes,handcuffs,key
thematic,,,,tax,them,dist,down,2018_Oct_18_1440,taxthemexp_tax_img,,,,,59.8562070983,stim/pants.jpg,stim/shoe.jpg,stim/cake.jpg,8020,3.0,1.0,0.0,1.0,,,1.0,down,1.4512732029,1,sock,stim/sock.jpg,pants,shoe,cake
thematic,,,,them,dist,tax,left,2018_Oct_18_1440,taxthemexp_tax_img,,,,,59.8562070983,stim/tree.jpg,stim/guitar.jpg,stim/turtle.jpg,8020,1.0,2.0,0.0,2.0,,,0.0,right,1.28578400612,1,bird,stim/cardinal.jpg,tree,guitar,turtle
thematic,,,,tax,them,dist,down,2018_Oct_18_1440,taxthemexp_tax_img,,,,,59.8562070983,stim/coffeemaker.jpg,stim/stove.jpg,stim/doorknob.jpg,8020,0.0,3.0,0.0,3.0,,,1.0,down,2.48552894592,1,kettle,stim/kettle.jpg,coffee maker,stove,doorknob
thematic,,,,them,dist,tax,left,2018_Oct_18_1440,taxthemexp_tax_img,,,,,59.8562070983,stim/bread.jpg,stim/trumpet.jpg,stim/microwave.jpg,8020,4.0,4.0,0.0,4.0,,,1.0,left,2.45173501968,1,toaster,stim/toaster.jpg,bread,trumpet,microwave
thematic,,,,dist,tax,them,right,2018_Oct_18_1440,taxthemexp_tax_img,,,,,59.8562070983,stim/yarn.jpg,stim/train.jpg,stim/stopsign.jpg,8020,5.0,5.0,0.0,5.0,,,1.0,right,1.95068192482,1,car,stim/car.jpg,yarn,train,stopsign
thematic,,,,,,,,2018_Oct_18_1440,taxthemexp_tax_img,,,,,59.8562070983,,,,8020,,,,,space,5.404024124149999,,,,1,,,,,
thematic,,,,tax,them,dist,down,2018_Oct_18_1440,taxthemexp_tax_img,0.0,0.0,0.0,0.0,59.8562070983,stim/peeler.jpg,stim/pasta.jpg,stim/receipt.jpg,8020,,,,,,,1.0,down,1.46852588654,1,strainer,stim/strainer.jpg,peeler,pasta,receipt
thematic,,,,them,dist,tax,left,2018_Oct_18_1440,taxthemexp_tax_img,13.0,1.0,0.0,1.0,59.8562070983,stim/binder.jpg,stim/balloon.jpg,stim/purse.jpg,8020,,,,,,,0.0,right,2.5512459278099997,1,backpack,stim/backpack.jpg,binder,balloon,purse
thematic,,,,dist,them,tax,down,2018_Oct_18_1440,taxthemexp_tax_img,3.0,2.0,0.0,2.0,59.8562070983,stim/hairdryer.jpg,stim/leash.jpg,stim/cat.jpg,8020,,,,,,,1.0,down,2.1522359848,1,dog,stim/dog.jpg,hairdryer,leash,cat
thematic,,,,tax,dist,them,right,2018_Oct_18_1440,taxthemexp_tax_img,23.0,3.0,0.0,3.0,59.8562070983,stim/croissant.jpg,stim/crib.jpg,stim/stove.jpg,8020,,,,,,,1.0,right,3.0510971546200003,1,pie,stim/pie.jpg,croissant,crib,stove
thematic,,,,dist,them,tax,down,2018_Oct_18_1440,taxthemexp_tax_img,14.0,4.0,0.0,4.0,59.8562070983,stim/fishhook.jpg,stim/rug.jpg,stim/duster.jpg,8020,,,,,,,1.0,down,1.4693679809600002,1,vacuum,stim/vacuum.jpg,fishhook,rug,duster
thematic,,,,dist,tax,them,right,2018_Oct_18_1440,taxthemexp_tax_img,16.0,5.0,0.0,5.0,59.8562070983,stim/mirror.jpg,stim/shotglass.jpg,stim/winebottle.jpg,8020,,,,,,,1.0,right,1.21828603745,1,wine glass,stim/wineglass.jpg,mirror,shotglass,wine bottle
thematic,,,,dist,them,tax,down,2018_Oct_18_1440,taxthemexp_tax_img,1.0,6.0,0.0,6.0,59.8562070983,stim/thimble.jpg,stim/log.jpg,stim/shovel.jpg,8020,,,,,,,1.0,down,2.5179438591,1,axe,stim/axe.jpg,thimble,log,shovel
thematic,,,,dist,tax,them,right,2018_Oct_18_1440,taxthemexp_tax_img,21.0,7.0,0.0,7.0,59.8562070983,stim/lipstick.jpg,stim/radio.jpg,stim/speakers.jpg,8020,,,,,,,1.0,right,2.46946501732,1,record player,stim/recordplayer.jpg,lipstick,radio,speakers
thematic,,,,them,dist,tax,left,2018_Oct_18_1440,taxthemexp_tax_img,12.0,8.0,0.0,8.0,59.8562070983,stim/cup.jpg,stim/button.jpg,stim/stroller.jpg,8020,,,,,,,0.0,right,1.58645606041,1,highchair,stim/highchair.jpg,cup,button,stroller
thematic,,,,them,dist,tax,left,2018_Oct_18_1440,taxthemexp_tax_img,9.0,9.0,0.0,9.0,59.8562070983,stim/birdcage.jpg,stim/skates.jpg,stim/butterfly.jpg,8020,,,,,,,1.0,left,2.13530492783,1,parrot,stim/parrot.jpg,bird cage,skates,butterfly
thematic,,,,them,dist,tax,left,2018_Oct_18_1440,taxthemexp_tax_img,7.0,10.0,0.0,10.0,59.8562070983,stim/bullet.jpg,stim/starfish.jpg,stim/sword.jpg,8020,,,,,,,1.0,left,1.6514670848800002,1,gun,stim/gun.jpg,bullet,starfish,sword
thematic,,,,them,dist,tax,left,2018_Oct_18_1440,taxthemexp_tax_img,11.0,11.0,0.0,11.0,59.8562070983,stim/hanger.jpg,stim/scissors.jpg,stim/skirt.jpg,8020,,,,,,,1.0,left,1.8695089817,1,suit,stim/suit.jpg,hanger,scissors,skirt
thematic,,,,dist,tax,them,right,2018_Oct_18_1440,taxthemexp_tax_img,22.0,12.0,0.0,12.0,59.8562070983,stim/flashlight.jpg,stim/hair.jpg,stim/toothbrush.jpg,8020,,,,,,,1.0,right,1.9685258865400002,1,teeth,stim/teeth.jpg,flashlight,hair,toothbrush
thematic,,,,them,dist,tax,left,2018_Oct_18_1440,taxthemexp_tax_img,10.0,13.0,0.0,13.0,59.8562070983,stim/lighter.jpg,stim/clock.jpg,stim/lantern.jpg,8020,,,,,,,0.0,right,2.65064191818,1,candle,stim/candle.jpg,lighter,clock,lantern
thematic,,,,tax,them,dist,down,2018_Oct_18_1440,taxthemexp_tax_img,4.0,14.0,0.0,14.0,59.8562070983,stim/exercisebike.jpg,stim/dumbbell.jpg,stim/goggles.jpg,8020,,,,,,,1.0,down,1.55167508125,1,exercise bench,stim/exercisebench.jpg,exercise bike,dumbbell,goggles
thematic,,,,them,tax,dist,left,2018_Oct_18_1440,taxthemexp_tax_img,6.0,15.0,0.0,15.0,59.8562070983,stim/cork.jpg,stim/bottleopener.jpg,stim/globe.jpg,8020,,,,,,,1.0,left,1.76769399643,1,corkscrew,stim/corkscrew2.jpg,cork,bottle opener,globe
thematic,,,,dist,them,tax,down,2018_Oct_18_1440,taxthemexp_tax_img,17.0,16.0,0.0,16.0,59.8562070983,stim/lightswitch.jpg,stim/file.jpg,stim/dresser.jpg,8020,,,,,,,1.0,down,2.45105004311,1,file cabinet,stim/filecabinet.jpg,lightswitch,file,dresser
