subnum,block,trial,practice,targdir,flankercoherence,flankerdir,time0,resp,corr,rt
8134,0,1,1,-1,,,70315,<timeout>,0,801
8134,0,2,1,1,1.0,1.0,73114,<rshift>,1,480
8134,0,3,1,-1,0.0,0.0,75539,<lshift>,1,387
8134,0,4,1,-1,-1.0,1.0,77870,<rshift>,0,372
8134,0,5,1,-1,1.0,-1.0,80188,<lshift>,1,482
8134,0,6,1,1,-1.0,-1.0,82619,<rshift>,1,512
8134,0,7,1,1,0.0,0.0,85080,<rshift>,1,513
8134,0,8,1,1,,,87540,<rshift>,1,442
8134,1,9,0,1,1.0,1.0,100364,<rshift>,1,531
8134,1,10,0,-1,-1.0,1.0,102432,<lshift>,1,580
8134,1,11,0,-1,0.0,0.0,104549,<lshift>,1,662
8134,1,12,0,-1,-1.0,1.0,106748,<lshift>,1,507
8134,1,13,0,1,-1.0,-1.0,108794,<rshift>,1,526
8134,1,14,0,-1,,,110860,<lshift>,1,505
8134,1,15,0,1,,,112904,<rshift>,1,506
8134,1,16,0,-1,,,114950,<lshift>,1,445
8134,1,17,0,1,-1.0,-1.0,116935,<rshift>,1,515
8134,1,18,0,-1,,,118990,<lshift>,1,456
8134,1,19,0,1,1.0,1.0,120986,<rshift>,1,615
8134,1,20,0,-1,-1.0,1.0,123141,<lshift>,1,602
8134,1,21,0,1,0.0,0.0,125283,<rshift>,1,455
8134,1,22,0,-1,0.0,0.0,127277,<lshift>,1,569
8134,1,23,0,1,,,129383,<rshift>,1,520
8134,1,24,0,-1,0.0,0.0,131440,<lshift>,1,469
8134,1,25,0,1,1.0,1.0,133445,<rshift>,1,397
8134,1,26,0,-1,0.0,0.0,135380,<lshift>,1,407
8134,1,27,0,1,,,137323,<rshift>,1,455
8134,1,28,0,1,-1.0,-1.0,139317,<rshift>,1,567
8134,1,29,0,-1,,,141423,<lshift>,1,506
8134,1,30,0,-1,-1.0,1.0,143469,<lshift>,1,515
8134,1,31,0,1,-1.0,-1.0,145524,<rshift>,1,637
8134,1,32,0,1,1.0,1.0,147701,<rshift>,1,545
8134,1,33,0,1,1.0,1.0,149787,<rshift>,1,385
8134,1,34,0,1,0.0,0.0,151712,<rshift>,1,389
8134,1,35,0,1,0.0,0.0,153640,<rshift>,1,447
8134,1,36,0,1,,,155626,<rshift>,1,372
8134,1,37,0,1,1.0,1.0,157538,<rshift>,1,366
8134,1,38,0,1,1.0,1.0,159441,<rshift>,1,344
8134,1,39,0,-1,,,161324,<rshift>,0,304
8134,1,40,0,1,-1.0,-1.0,163166,<rshift>,1,669
8134,1,41,0,-1,1.0,-1.0,165373,<lshift>,1,455
8134,1,42,0,-1,-1.0,1.0,167367,<lshift>,1,586
8134,1,43,0,1,0.0,0.0,169493,<rshift>,1,567
8134,1,44,0,1,1.0,1.0,171598,<rshift>,1,647
8134,1,45,0,1,,,173785,<rshift>,1,536
8134,1,46,0,-1,-1.0,1.0,175861,<lshift>,1,453
8134,1,47,0,1,1.0,1.0,177856,<rshift>,1,455
8134,1,48,0,-1,0.0,0.0,179851,<lshift>,1,618
8134,1,49,0,1,-1.0,-1.0,182008,<rshift>,1,628
8134,1,50,0,1,-1.0,-1.0,184176,<timeout>,0,801
8134,1,51,0,-1,,,186516,<lshift>,1,549
8134,1,52,0,1,,,188602,<rshift>,1,497
8134,1,53,0,1,,,190636,<rshift>,1,629
8134,1,54,0,-1,,,192803,<lshift>,1,537
8134,1,55,0,-1,-1.0,1.0,194878,<lshift>,1,507
8134,1,56,0,1,1.0,1.0,196923,<rshift>,1,435
8134,1,57,0,1,,,198896,<rshift>,1,446
8134,1,58,0,1,,,200881,<rshift>,1,444
8134,1,59,0,-1,1.0,-1.0,202865,<lshift>,1,414
8134,1,60,0,1,,,204819,<rshift>,1,556
8134,1,61,0,1,,,206916,<rshift>,1,535
8134,1,62,0,-1,,,208991,<lshift>,1,507
8134,1,63,0,1,0.0,0.0,211038,<rshift>,1,336
8134,1,64,0,-1,1.0,-1.0,212913,<lshift>,1,374
8134,1,65,0,1,0.0,0.0,214827,<rshift>,1,427
8134,1,66,0,-1,1.0,-1.0,216790,<lshift>,1,589
8134,1,67,0,-1,0.0,0.0,218917,<lshift>,1,609
8134,1,68,0,-1,-1.0,1.0,221063,<lshift>,1,537
8134,1,69,0,1,-1.0,-1.0,223137,<rshift>,1,610
8134,1,70,0,1,0.0,0.0,225285,<rshift>,1,539
8134,1,71,0,1,0.0,0.0,227361,<rshift>,1,467
8134,1,72,0,-1,,,229365,<lshift>,1,717
8134,1,73,0,-1,,,231622,<lshift>,1,536
8134,1,74,0,-1,1.0,-1.0,233698,<lshift>,1,503
8134,1,75,0,1,,,235741,<rshift>,1,576
8134,1,76,0,-1,0.0,0.0,237858,<lshift>,1,630
8134,1,77,0,-1,0.0,0.0,240026,<lshift>,1,507
8134,1,78,0,-1,0.0,0.0,242071,<lshift>,1,618
8134,1,79,0,-1,0.0,0.0,244226,<lshift>,1,651
8134,1,80,0,-1,0.0,0.0,246413,<lshift>,1,458
8134,1,81,0,-1,1.0,-1.0,248407,<lshift>,1,499
8134,1,82,0,1,,,250445,<rshift>,1,565
8134,1,83,0,1,1.0,1.0,252548,<rshift>,1,396
8134,1,84,0,1,-1.0,-1.0,254483,<rshift>,1,494
8134,1,85,0,-1,-1.0,1.0,256516,<lshift>,1,485
8134,1,86,0,-1,-1.0,1.0,258541,<lshift>,1,557
8134,1,87,0,-1,1.0,-1.0,260637,<lshift>,1,486
8134,1,88,0,-1,0.0,0.0,262663,<lshift>,1,416
8134,1,89,0,1,1.0,1.0,264617,<rshift>,1,590
8134,1,90,0,-1,-1.0,1.0,266749,<lshift>,1,687
8134,1,91,0,-1,-1.0,1.0,268977,<rshift>,0,777
8134,1,92,0,1,0.0,0.0,271295,<rshift>,1,578
8134,1,93,0,1,,,273410,<rshift>,1,609
8134,1,94,0,-1,1.0,-1.0,275556,<lshift>,1,620
8134,1,95,0,1,-1.0,-1.0,277714,<rshift>,1,669
8134,1,96,0,-1,1.0,-1.0,279922,<lshift>,1,638
8134,1,97,0,-1,0.0,0.0,282097,<lshift>,1,569
8134,1,98,0,-1,0.0,0.0,284204,<lshift>,1,507
8134,1,99,0,-1,,,286249,<lshift>,1,516
8134,1,100,0,1,1.0,1.0,288305,<rshift>,1,515
8134,1,101,0,-1,,,290360,<lshift>,1,799
8134,1,102,0,1,1.0,1.0,292699,<rshift>,1,454
8134,1,103,0,1,0.0,0.0,294694,<rshift>,1,527
8134,1,104,0,1,0.0,0.0,296760,<rshift>,1,507
8134,1,105,0,1,,,298806,<rshift>,1,453
8134,1,106,0,1,1.0,1.0,300800,<rshift>,1,487
8134,1,107,0,-1,-1.0,1.0,302826,<lshift>,1,528
8134,1,108,0,-1,,,304893,<lshift>,1,516
8134,1,109,0,-1,-1.0,1.0,306948,<lshift>,1,509
8134,1,110,0,-1,1.0,-1.0,308995,<lshift>,1,465
8134,1,111,0,-1,-1.0,1.0,310999,<lshift>,1,466
8134,1,112,0,1,0.0,0.0,313004,<rshift>,1,550
8134,1,113,0,-1,-1.0,1.0,315091,<lshift>,1,607
8134,1,114,0,1,-1.0,-1.0,317238,<rshift>,1,556
8134,1,115,0,1,1.0,1.0,319334,<rshift>,1,546
8134,1,116,0,1,0.0,0.0,321421,<rshift>,1,519
8134,1,117,0,-1,,,323479,<lshift>,1,418
8134,1,118,0,-1,,,325438,<timeout>,0,801
8134,1,119,0,-1,,,327780,<lshift>,1,554
8134,1,120,0,-1,1.0,-1.0,329875,<lshift>,1,425
8134,1,121,0,-1,,,331839,<lshift>,1,497
8134,1,122,0,1,-1.0,-1.0,333874,<rshift>,1,529
8134,1,123,0,1,,,335942,<rshift>,1,557
8134,1,124,0,-1,1.0,-1.0,338037,<lshift>,1,588
8134,1,125,0,-1,0.0,0.0,340165,<lshift>,1,457
8134,1,126,0,-1,1.0,-1.0,342161,<lshift>,1,487
8134,1,127,0,1,-1.0,-1.0,344187,<rshift>,1,544
8134,1,128,0,1,-1.0,-1.0,346272,<rshift>,1,496
8134,1,129,0,-1,0.0,0.0,348308,<lshift>,1,537
8134,1,130,0,-1,0.0,0.0,350384,<lshift>,1,669
8134,1,131,0,-1,0.0,0.0,352592,<lshift>,1,659
8134,1,132,0,1,,,354791,<rshift>,1,495
8134,1,133,0,1,0.0,0.0,356828,<rshift>,1,455
8134,1,134,0,-1,1.0,-1.0,358822,<lshift>,1,792
8134,1,135,0,-1,1.0,-1.0,361153,<lshift>,1,458
8134,1,136,0,1,,,363150,<timeout>,0,801
8134,1,137,0,1,0.0,0.0,365490,<rshift>,1,486
8134,1,138,0,-1,1.0,-1.0,367514,<lshift>,1,447
8134,1,139,0,-1,-1.0,1.0,369500,<lshift>,1,528
8134,1,140,0,1,1.0,1.0,371567,<rshift>,1,518
8134,1,141,0,-1,1.0,-1.0,373624,<lshift>,1,445
8134,1,142,0,1,1.0,1.0,375609,<rshift>,1,467
8134,1,143,0,1,0.0,0.0,377617,<rshift>,1,436
8134,1,144,0,1,0.0,0.0,379592,<rshift>,1,366
8134,1,145,0,1,-1.0,-1.0,381497,<rshift>,1,514
8134,1,146,0,-1,1.0,-1.0,383553,<lshift>,1,505
8134,1,147,0,1,-1.0,-1.0,385599,<rshift>,1,504
8134,1,148,0,-1,1.0,-1.0,387645,<lshift>,1,494
8134,1,149,0,1,1.0,1.0,389678,<rshift>,1,376
8134,1,150,0,1,-1.0,-1.0,391593,<rshift>,1,477
8134,1,151,0,-1,-1.0,1.0,393609,<lshift>,1,527
8134,1,152,0,-1,,,395675,<lshift>,1,435
8134,1,153,0,-1,,,397650,<timeout>,0,801
8134,1,154,0,1,0.0,0.0,399991,<rshift>,1,343
8134,1,155,0,-1,,,401873,<lshift>,1,457
8134,1,156,0,1,1.0,1.0,403870,<rshift>,1,459
8134,1,157,0,1,0.0,0.0,405870,<rshift>,1,588
8134,1,158,0,-1,-1.0,1.0,407997,<lshift>,1,525
8134,1,159,0,1,,,410064,<rshift>,1,483
8134,1,160,0,1,-1.0,-1.0,412089,<rshift>,1,555
8134,1,161,0,-1,1.0,-1.0,414185,<lshift>,1,606
8134,1,162,0,-1,0.0,0.0,416333,<rshift>,0,577
8134,1,163,0,1,-1.0,-1.0,418449,<rshift>,1,82
8134,1,164,0,1,,,420070,<rshift>,1,578
8134,1,165,0,-1,0.0,0.0,422187,<lshift>,1,397
8134,1,166,0,1,-1.0,-1.0,424122,<rshift>,1,486
8134,1,167,0,1,0.0,0.0,426147,<rshift>,1,446
8134,1,168,0,-1,-1.0,1.0,428131,<lshift>,1,507
8075,0,1,1,-1,-1.0,1.0,32987,<timeout>,0,802
8075,0,2,1,1,0.0,0.0,35770,<timeout>,0,801
8075,0,3,1,1,-1.0,-1.0,38519,<lshift>,0,585
8075,0,4,1,-1,0.0,0.0,41049,<rshift>,0,461
8075,0,5,1,-1,,,43453,<rshift>,0,578
8075,0,6,1,1,1.0,1.0,45978,<rshift>,1,629
8075,0,7,1,-1,1.0,-1.0,48553,<lshift>,1,567
8075,0,8,1,1,,,51068,<rshift>,1,473
8075,1,9,0,1,1.0,1.0,59039,<lshift>,0,440
8075,1,10,0,-1,1.0,-1.0,61019,<rshift>,0,386
8075,1,11,0,1,,,62945,<rshift>,1,477
8075,1,12,0,-1,1.0,-1.0,64962,<lshift>,1,469
8075,1,13,0,-1,0.0,0.0,66968,<rshift>,0,501
8075,1,14,0,-1,0.0,0.0,69005,<lshift>,1,592
8075,1,15,0,1,1.0,1.0,71133,<rshift>,1,430
8075,1,16,0,1,1.0,1.0,73100,<rshift>,1,520
8075,1,17,0,1,-1.0,-1.0,75159,<rshift>,1,487
8075,1,18,0,-1,-1.0,1.0,77186,<lshift>,1,498
8075,1,19,0,-1,-1.0,1.0,79224,<lshift>,1,571
8075,1,20,0,-1,1.0,-1.0,81334,<lshift>,1,498
8075,1,21,0,-1,-1.0,1.0,83373,<lshift>,1,659
8075,1,22,0,-1,1.0,-1.0,85572,<lshift>,1,468
8075,1,23,0,1,,,87580,<rshift>,1,448
8075,1,24,0,-1,-1.0,1.0,89568,<lshift>,1,489
8075,1,25,0,-1,,,91594,<lshift>,1,480
8075,1,26,0,-1,1.0,-1.0,93611,<lshift>,1,450
8075,1,27,0,1,0.0,0.0,95598,<rshift>,1,421
8075,1,28,0,1,,,97556,<rshift>,1,530
8075,1,29,0,-1,,,99623,<lshift>,1,430
8075,1,30,0,-1,0.0,0.0,101591,<lshift>,1,450
8075,1,31,0,-1,0.0,0.0,103578,<lshift>,1,429
8075,1,32,0,1,-1.0,-1.0,105544,<rshift>,1,551
8075,1,33,0,1,0.0,0.0,107633,<rshift>,1,431
8075,1,34,0,1,1.0,1.0,109602,<rshift>,1,457
8075,1,35,0,-1,0.0,0.0,111600,<lshift>,1,438
8075,1,36,0,1,-1.0,-1.0,113577,<rshift>,1,498
8075,1,37,0,-1,-1.0,1.0,115615,<lshift>,1,500
8075,1,38,0,1,-1.0,-1.0,117652,<rshift>,1,470
8075,1,39,0,-1,1.0,-1.0,119659,<lshift>,1,451
8075,1,40,0,1,0.0,0.0,121647,<rshift>,1,391
8075,1,41,0,1,0.0,0.0,123574,<rshift>,1,390
8075,1,42,0,1,,,125501,<rshift>,1,438
8075,1,43,0,1,,,127479,<rshift>,1,397
8075,1,44,0,-1,1.0,-1.0,129416,<lshift>,1,418
8075,1,45,0,-1,,,131374,<lshift>,1,456
8075,1,46,0,1,0.0,0.0,133370,<rshift>,1,408
8075,1,47,0,1,,,135318,<rshift>,1,488
8075,1,48,0,-1,,,137346,<lshift>,1,467
8075,1,49,0,-1,1.0,-1.0,139353,<lshift>,1,467
8075,1,50,0,1,1.0,1.0,141360,<rshift>,1,468
8075,1,51,0,1,1.0,1.0,143366,<rshift>,1,471
8075,1,52,0,1,,,145374,<rshift>,1,480
8075,1,53,0,-1,,,147391,<lshift>,1,511
8075,1,54,0,-1,,,149439,<lshift>,1,513
8075,1,55,0,-1,,,151490,<lshift>,1,467
8075,1,56,0,1,1.0,1.0,153497,<rshift>,1,458
8075,1,57,0,1,0.0,0.0,155495,<rshift>,1,419
8075,1,58,0,-1,,,157452,<lshift>,1,437
8075,1,59,0,-1,,,159429,<lshift>,1,478
8075,1,60,0,1,-1.0,-1.0,161448,<rshift>,1,508
8075,1,61,0,-1,,,163497,<lshift>,1,458
8075,1,62,0,1,,,165495,<rshift>,1,417
8075,1,63,0,1,-1.0,-1.0,167451,<rshift>,1,501
8075,1,64,0,1,0.0,0.0,169489,<rshift>,1,453
8075,1,65,0,1,-1.0,-1.0,171478,<rshift>,1,453
8075,1,66,0,-1,0.0,0.0,173468,<lshift>,1,572
8075,1,67,0,-1,0.0,0.0,175577,<lshift>,1,501
8075,1,68,0,-1,-1.0,1.0,177615,<lshift>,1,551
8075,1,69,0,-1,-1.0,1.0,179703,<lshift>,1,510
8075,1,70,0,-1,1.0,-1.0,181753,<lshift>,1,437
8075,1,71,0,1,1.0,1.0,183730,<rshift>,1,478
8075,1,72,0,-1,0.0,0.0,185748,<lshift>,1,409
8075,1,73,0,1,0.0,0.0,187696,<rshift>,1,370
8075,1,74,0,1,1.0,1.0,189603,<rshift>,1,509
8075,1,75,0,1,0.0,0.0,191651,<rshift>,1,439
8075,1,76,0,1,,,193627,<rshift>,1,472
8075,1,77,0,1,1.0,1.0,195636,<rshift>,1,420
8075,1,78,0,-1,1.0,-1.0,197594,<lshift>,1,449
8075,1,79,0,-1,-1.0,1.0,199581,<lshift>,1,510
8075,1,80,0,1,0.0,0.0,201630,<rshift>,1,481
8075,1,81,0,-1,0.0,0.0,203647,<lshift>,1,470
8075,1,82,0,-1,-1.0,1.0,205655,<lshift>,1,519
8075,1,83,0,1,,,207714,<rshift>,1,539
8075,1,84,0,1,-1.0,-1.0,209793,<rshift>,1,488
8075,1,85,0,-1,,,211822,<lshift>,1,407
8075,1,86,0,-1,,,213769,<lshift>,1,427
8075,1,87,0,-1,1.0,-1.0,215736,<lshift>,1,437
8075,1,88,0,1,1.0,1.0,217713,<rshift>,1,470
8075,1,89,0,1,,,219721,<rshift>,1,481
8075,1,90,0,1,,,221739,<rshift>,1,451
8075,1,91,0,-1,1.0,-1.0,223728,<lshift>,1,480
8075,1,92,0,1,-1.0,-1.0,225745,<rshift>,1,471
8075,1,93,0,-1,-1.0,1.0,227754,<lshift>,1,600
8075,1,94,0,-1,-1.0,1.0,229893,<lshift>,1,508
8075,1,95,0,-1,-1.0,1.0,231940,<lshift>,1,469
8075,1,96,0,1,-1.0,-1.0,233949,<rshift>,1,499
8075,1,97,0,1,,,235987,<rshift>,1,501
8075,1,98,0,-1,1.0,-1.0,238028,<lshift>,1,417
8075,1,99,0,-1,1.0,-1.0,239985,<lshift>,1,457
8075,1,100,0,-1,,,241982,<lshift>,1,528
8075,1,101,0,1,-1.0,-1.0,244050,<rshift>,1,500
8075,1,102,0,-1,0.0,0.0,246087,<lshift>,1,451
8075,1,103,0,-1,0.0,0.0,248075,<lshift>,1,390
8075,1,104,0,1,0.0,0.0,250002,<rshift>,1,440
8075,1,105,0,-1,1.0,-1.0,251979,<lshift>,1,440
8075,1,106,0,1,,,253958,<rshift>,1,408
8075,1,107,0,1,1.0,1.0,255905,<rshift>,1,437
8075,1,108,0,1,1.0,1.0,257882,<rshift>,1,427
8075,1,109,0,1,1.0,1.0,259849,<rshift>,1,429
8075,1,110,0,-1,-1.0,1.0,261818,<rshift>,0,488
8075,1,111,0,-1,,,263847,<lshift>,1,436
8075,1,112,0,-1,,,265823,<lshift>,1,406
8075,1,113,0,-1,0.0,0.0,267769,<lshift>,1,450
8075,1,114,0,-1,,,269758,<lshift>,1,428
8075,1,115,0,1,0.0,0.0,271724,<rshift>,1,451
8075,1,116,0,-1,1.0,-1.0,273711,<lshift>,1,470
8075,1,117,0,1,-1.0,-1.0,275719,<rshift>,1,430
8075,1,118,0,1,,,277686,<rshift>,1,449
8075,1,119,0,1,-1.0,-1.0,279674,<rshift>,1,579
8075,1,120,0,1,-1.0,-1.0,281793,<rshift>,1,489
8075,1,121,0,1,1.0,1.0,283821,<rshift>,1,407
8075,1,122,0,1,,,285768,<rshift>,1,458
8075,1,123,0,1,1.0,1.0,287766,<rshift>,1,367
8075,1,124,0,-1,0.0,0.0,289674,<lshift>,1,377
8075,1,125,0,-1,-1.0,1.0,291590,<lshift>,1,519
8075,1,126,0,1,0.0,0.0,293649,<rshift>,1,580
8075,1,127,0,-1,0.0,0.0,295767,<lshift>,1,442
8075,1,128,0,-1,,,297745,<lshift>,1,501
8075,1,129,0,1,1.0,1.0,299784,<rshift>,1,460
8075,1,130,0,-1,0.0,0.0,301782,<lshift>,1,410
8075,1,131,0,-1,-1.0,1.0,303729,<lshift>,1,694
8075,1,132,0,-1,0.0,0.0,305962,<lshift>,1,409
8075,1,133,0,1,0.0,0.0,307909,<rshift>,1,449
8075,1,134,0,-1,0.0,0.0,309896,<lshift>,1,379
8075,1,135,0,1,,,311813,<rshift>,1,457
8075,1,136,0,1,-1.0,-1.0,313811,<rshift>,1,498
8075,1,137,0,-1,1.0,-1.0,315849,<lshift>,1,437
8075,1,138,0,-1,0.0,0.0,317826,<lshift>,1,458
8075,1,139,0,1,0.0,0.0,319823,<rshift>,1,369
8075,1,140,0,1,0.0,0.0,321729,<rshift>,1,411
8075,1,141,0,-1,-1.0,1.0,323676,<lshift>,1,511
8075,1,142,0,-1,-1.0,1.0,325725,<lshift>,1,501
8075,1,143,0,-1,0.0,0.0,327764,<lshift>,1,582
8075,1,144,0,-1,-1.0,1.0,329883,<lshift>,1,693
8075,1,145,0,-1,-1.0,1.0,332114,<lshift>,1,509
8075,1,146,0,1,0.0,0.0,334162,<rshift>,1,611
8075,1,147,0,1,-1.0,-1.0,336311,<rshift>,1,488
8075,1,148,0,-1,,,338339,<lshift>,1,498
8075,1,149,0,1,0.0,0.0,340378,<rshift>,1,398
8075,1,150,0,1,-1.0,-1.0,342315,<rshift>,1,519
8075,1,151,0,1,,,344374,<rshift>,1,438
8075,1,152,0,-1,,,346352,<lshift>,1,469
8075,1,153,0,1,1.0,1.0,348359,<rshift>,1,552
8075,1,154,0,-1,-1.0,1.0,350449,<lshift>,1,584
8075,1,155,0,1,-1.0,-1.0,352571,<rshift>,1,611
8075,1,156,0,1,-1.0,-1.0,354721,<rshift>,1,713
8075,1,157,0,1,1.0,1.0,356972,<rshift>,1,428
8075,1,158,0,-1,1.0,-1.0,358940,<lshift>,1,457
8075,1,159,0,1,1.0,1.0,360937,<rshift>,1,438
8075,1,160,0,1,,,362915,<rshift>,1,559
8075,1,161,0,-1,0.0,0.0,365014,<lshift>,1,429
8075,1,162,0,-1,1.0,-1.0,366983,<lshift>,1,468
8075,1,163,0,1,,,368991,<rshift>,1,541
8075,1,164,0,-1,1.0,-1.0,371072,<lshift>,1,689
8075,1,165,0,-1,,,373300,<lshift>,1,470
8075,1,166,0,1,0.0,0.0,375308,<rshift>,1,420
8075,1,167,0,1,0.0,0.0,377264,<rshift>,1,441
8075,1,168,0,1,-1.0,-1.0,379242,<rshift>,1,591
8042,0,1,1,-1,0.0,0.0,57367,<timeout>,0,802
8042,0,2,1,-1,,,60161,<rshift>,0,463
8042,0,3,1,1,1.0,1.0,62569,<lshift>,0,251
8042,0,4,1,1,,,64765,<rshift>,1,297
8042,0,5,1,1,0.0,0.0,67009,<rshift>,1,302
8042,0,6,1,-1,-1.0,1.0,69256,<lshift>,1,288
8042,0,7,1,1,-1.0,-1.0,71492,<lshift>,0,369
8042,0,8,1,-1,1.0,-1.0,73810,<lshift>,1,448
8042,1,9,0,-1,1.0,-1.0,94105,<lshift>,1,408
8042,1,10,0,-1,1.0,-1.0,96051,<lshift>,1,415
8042,1,11,0,1,1.0,1.0,98003,<rshift>,1,484
8042,1,12,0,-1,1.0,-1.0,100028,<lshift>,1,342
8042,1,13,0,1,-1.0,-1.0,101910,<lshift>,0,442
8042,1,14,0,-1,-1.0,1.0,103892,<lshift>,1,463
8042,1,15,0,-1,-1.0,1.0,105895,<lshift>,1,382
8042,1,16,0,1,-1.0,-1.0,107816,<rshift>,1,454
8042,1,17,0,1,1.0,1.0,109810,<rshift>,1,402
8042,1,18,0,1,,,111752,<rshift>,1,432
8042,1,19,0,-1,0.0,0.0,113727,<rshift>,0,370
8042,1,20,0,-1,,,115636,<lshift>,1,403
8042,1,21,0,1,,,117577,<lshift>,0,323
8042,1,22,0,1,,,119437,<rshift>,1,315
8042,1,23,0,-1,-1.0,1.0,121289,<lshift>,1,297
8042,1,24,0,1,0.0,0.0,123123,<rshift>,1,315
8042,1,25,0,1,-1.0,-1.0,124975,<lshift>,0,403
8042,1,26,0,1,1.0,1.0,126916,<rshift>,1,393
8042,1,27,0,1,0.0,0.0,128849,<rshift>,1,445
8042,1,28,0,1,1.0,1.0,130832,<rshift>,1,402
8042,1,29,0,-1,-1.0,1.0,132774,<lshift>,1,311
8042,1,30,0,1,0.0,0.0,134624,<rshift>,1,334
8042,1,31,0,-1,1.0,-1.0,136495,<lshift>,1,344
8042,1,32,0,-1,0.0,0.0,138379,<rshift>,0,281
8042,1,33,0,1,-1.0,-1.0,140199,<rshift>,1,332
8042,1,34,0,-1,1.0,-1.0,142071,<lshift>,1,271
8042,1,35,0,-1,1.0,-1.0,143882,<lshift>,1,361
8042,1,36,0,1,0.0,0.0,145783,<lshift>,0,224
8042,1,37,0,-1,,,147543,<rshift>,0,366
8042,1,38,0,1,,,149447,<rshift>,1,291
8042,1,39,0,1,,,151276,<rshift>,1,355
8042,1,40,0,-1,,,153168,<lshift>,1,375
8042,1,41,0,-1,0.0,0.0,155082,<lshift>,1,416
8042,1,42,0,-1,-1.0,1.0,157035,<rshift>,0,402
8042,1,43,0,1,1.0,1.0,158977,<rshift>,1,401
8042,1,44,0,-1,-1.0,1.0,160918,<rshift>,0,442
8042,1,45,0,1,-1.0,-1.0,162899,<rshift>,1,454
8042,1,46,0,-1,0.0,0.0,164893,<lshift>,1,343
8042,1,47,0,1,0.0,0.0,166775,<rshift>,1,466
8042,1,48,0,1,,,168780,<lshift>,0,300
8042,1,49,0,1,,,170621,<rshift>,1,372
8042,1,50,0,1,,,172533,<rshift>,1,412
8042,1,51,0,-1,-1.0,1.0,174485,<lshift>,1,486
8042,1,52,0,1,,,176508,<rshift>,1,405
8042,1,53,0,-1,0.0,0.0,178450,<lshift>,1,357
8042,1,54,0,-1,,,180344,<lshift>,1,526
8042,1,55,0,-1,0.0,0.0,182408,<lshift>,1,426
8042,1,56,0,1,,,184371,<rshift>,1,437
8042,1,57,0,1,0.0,0.0,186345,<rshift>,1,418
8042,1,58,0,-1,,,188301,<lshift>,1,403
8042,1,59,0,-1,1.0,-1.0,190244,<rshift>,0,370
8042,1,60,0,1,,,192154,<rshift>,1,405
8042,1,61,0,-1,1.0,-1.0,194099,<lshift>,1,364
8042,1,62,0,1,0.0,0.0,196004,<rshift>,1,413
8042,1,63,0,-1,1.0,-1.0,197956,<lshift>,1,351
8042,1,64,0,1,-1.0,-1.0,199847,<rshift>,1,534
8042,1,65,0,1,-1.0,-1.0,201920,<rshift>,1,464
8042,1,66,0,-1,-1.0,1.0,203922,<lshift>,1,436
8042,1,67,0,-1,0.0,0.0,205895,<lshift>,1,467
8042,1,68,0,-1,0.0,0.0,207898,<lshift>,1,458
8042,1,69,0,1,0.0,0.0,209893,<rshift>,1,426
8042,1,70,0,1,-1.0,-1.0,211855,<rshift>,1,435
8042,1,71,0,1,1.0,1.0,213829,<rshift>,1,393
8042,1,72,0,-1,1.0,-1.0,215762,<lshift>,1,444
8042,1,73,0,-1,,,217746,<lshift>,1,546
8042,1,74,0,1,1.0,1.0,219831,<rshift>,1,444
8042,1,75,0,1,,,221814,<rshift>,1,425
8042,1,76,0,1,-1.0,-1.0,223777,<rshift>,1,404
8042,1,77,0,1,0.0,0.0,225725,<rshift>,1,431
8042,1,78,0,-1,0.0,0.0,227695,<lshift>,1,414
8042,1,79,0,1,-1.0,-1.0,229648,<rshift>,1,402
8042,1,80,0,-1,,,231590,<lshift>,1,534
8042,1,81,0,1,1.0,1.0,233663,<rshift>,1,243
8042,1,82,0,-1,,,235443,<lshift>,1,242
8042,1,83,0,-1,-1.0,1.0,237224,<rshift>,0,271
8042,1,84,0,-1,1.0,-1.0,239034,<rshift>,0,273
8042,1,85,0,1,1.0,1.0,240846,<rshift>,1,351
8042,1,86,0,1,-1.0,-1.0,242737,<lshift>,0,351
8042,1,87,0,-1,,,244628,<rshift>,0,418
8042,1,88,0,1,1.0,1.0,246584,<rshift>,1,515
8042,1,89,0,-1,1.0,-1.0,248638,<lshift>,1,365
8042,1,90,0,1,-1.0,-1.0,250543,<rshift>,1,554
8042,1,91,0,1,,,252637,<rshift>,1,566
8042,1,92,0,1,1.0,1.0,254742,<rshift>,1,453
8042,1,93,0,-1,0.0,0.0,256736,<lshift>,1,403
8042,1,94,0,1,0.0,0.0,258678,<rshift>,1,445
8042,1,95,0,-1,,,260661,<rshift>,0,465
8042,1,96,0,-1,,,262663,<lshift>,1,547
8042,1,97,0,-1,1.0,-1.0,264747,<lshift>,1,465
8042,1,98,0,-1,-1.0,1.0,266749,<lshift>,1,464
8042,1,99,0,-1,-1.0,1.0,268753,<lshift>,1,526
8042,1,100,0,1,0.0,0.0,270816,<rshift>,1,386
8042,1,101,0,-1,,,272740,<lshift>,1,413
8042,1,102,0,1,1.0,1.0,274693,<rshift>,1,352
8042,1,103,0,1,1.0,1.0,276585,<rshift>,1,414
8042,1,104,0,-1,,,278539,<rshift>,0,341
8042,1,105,0,1,0.0,0.0,280420,<rshift>,1,433
8042,1,106,0,1,0.0,0.0,282392,<rshift>,1,456
8042,1,107,0,-1,1.0,-1.0,284386,<lshift>,1,422
8042,1,108,0,1,-1.0,-1.0,286348,<rshift>,1,625
8042,1,109,0,1,,,288514,<rshift>,1,412
8042,1,110,0,-1,,,290464,<lshift>,1,454
8042,1,111,0,-1,0.0,0.0,292456,<lshift>,1,467
8042,1,112,0,-1,-1.0,1.0,294460,<rshift>,0,405
8042,1,113,0,1,0.0,0.0,296402,<rshift>,1,386
8042,1,114,0,1,0.0,0.0,298325,<rshift>,1,375
8042,1,115,0,1,-1.0,-1.0,300238,<lshift>,0,414
8042,1,116,0,-1,0.0,0.0,302191,<lshift>,1,322
8042,1,117,0,1,0.0,0.0,304051,<rshift>,1,344
8042,1,118,0,-1,-1.0,1.0,305933,<lshift>,1,505
8042,1,119,0,1,,,307978,<rshift>,1,333
8042,1,120,0,-1,-1.0,1.0,309851,<lshift>,1,564
8042,1,121,0,1,0.0,0.0,311956,<rshift>,1,424
8042,1,122,0,-1,,,313919,<lshift>,1,464
8042,1,123,0,-1,,,315923,<lshift>,1,522
8042,1,124,0,1,-1.0,-1.0,317986,<rshift>,1,625
8042,1,125,0,-1,0.0,0.0,320149,<lshift>,1,356
8042,1,126,0,1,-1.0,-1.0,322041,<rshift>,1,324
8042,1,127,0,1,0.0,0.0,323903,<rshift>,1,427
8042,1,128,0,1,-1.0,-1.0,325867,<rshift>,1,525
8042,1,129,0,-1,,,327930,<lshift>,1,463
8042,1,130,0,-1,0.0,0.0,329933,<lshift>,1,465
8042,1,131,0,1,,,331935,<rshift>,1,423
8042,1,132,0,1,1.0,1.0,333897,<rshift>,1,453
8042,1,133,0,-1,-1.0,1.0,335890,<lshift>,1,495
8042,1,134,0,-1,0.0,0.0,337925,<lshift>,1,435
8042,1,135,0,1,1.0,1.0,339898,<rshift>,1,434
8042,1,136,0,-1,-1.0,1.0,341873,<lshift>,1,485
8042,1,137,0,1,,,343899,<rshift>,1,352
8042,1,138,0,1,1.0,1.0,345791,<rshift>,1,525
8042,1,139,0,1,-1.0,-1.0,347854,<rshift>,1,426
8042,1,140,0,-1,0.0,0.0,349817,<lshift>,1,468
8042,1,141,0,-1,-1.0,1.0,351822,<lshift>,1,464
8042,1,142,0,-1,-1.0,1.0,353824,<lshift>,1,426
8042,1,143,0,1,,,355788,<rshift>,1,484
8042,1,144,0,1,1.0,1.0,357812,<rshift>,1,403
8042,1,145,0,-1,1.0,-1.0,359754,<lshift>,1,444
8042,1,146,0,1,-1.0,-1.0,361738,<rshift>,1,485
8042,1,147,0,-1,1.0,-1.0,363763,<lshift>,1,351
8042,1,148,0,-1,1.0,-1.0,365654,<lshift>,1,453
8042,1,149,0,1,,,367648,<rshift>,1,437
8042,1,150,0,-1,-1.0,1.0,369625,<lshift>,1,538
8042,1,151,0,-1,0.0,0.0,371703,<lshift>,1,425
8042,1,152,0,1,1.0,1.0,373666,<rshift>,1,373
8042,1,153,0,-1,1.0,-1.0,375579,<lshift>,1,425
8042,1,154,0,-1,-1.0,1.0,377542,<rshift>,0,427
8042,1,155,0,1,1.0,1.0,379507,<rshift>,1,435
8042,1,156,0,-1,,,381480,<lshift>,1,434
8042,1,157,0,-1,,,383453,<lshift>,1,393
8042,1,158,0,-1,0.0,0.0,385385,<lshift>,1,365
8042,1,159,0,1,-1.0,-1.0,387287,<lshift>,0,404
8042,1,160,0,-1,1.0,-1.0,389230,<lshift>,1,413
8042,1,161,0,1,0.0,0.0,391183,<rshift>,1,364
8042,1,162,0,1,1.0,1.0,393085,<rshift>,1,504
8042,1,163,0,-1,,,395129,<lshift>,1,504
8042,1,164,0,1,0.0,0.0,397174,<rshift>,1,475
8042,1,165,0,-1,0.0,0.0,399188,<lshift>,1,404
8042,1,166,0,-1,1.0,-1.0,401132,<lshift>,1,482
8042,1,167,0,1,,,403154,<rshift>,1,475
8042,1,168,0,-1,0.0,0.0,405169,<lshift>,1,456
8009,0,1,1,1,0.0,0.0,47102,<timeout>,0,801
8009,0,2,1,-1,1.0,-1.0,49818,<lshift>,1,633
8009,0,3,1,-1,0.0,0.0,52366,<lshift>,1,534
8009,0,4,1,1,,,54813,<lshift>,0,126
8009,0,5,1,1,1.0,1.0,56854,<rshift>,1,309
8009,0,6,1,-1,,,59079,<lshift>,1,470
8009,0,7,1,-1,-1.0,1.0,61465,<rshift>,0,317
8009,0,8,1,1,-1.0,-1.0,63698,<rshift>,1,592
8009,1,9,0,1,1.0,1.0,77164,<rshift>,1,399
8009,1,10,0,-1,0.0,0.0,79074,<lshift>,1,368
8009,1,11,0,-1,1.0,-1.0,80953,<lshift>,1,396
8009,1,12,0,-1,-1.0,1.0,82860,<lshift>,1,506
8009,1,13,0,1,-1.0,-1.0,84879,<rshift>,1,468
8009,1,14,0,1,,,86859,<rshift>,1,426
8009,1,15,0,-1,0.0,0.0,88798,<lshift>,1,397
8009,1,16,0,-1,1.0,-1.0,90706,<lshift>,1,416
8009,1,17,0,1,0.0,0.0,92635,<rshift>,1,438
8009,1,18,0,-1,0.0,0.0,94584,<lshift>,1,397
8009,1,19,0,-1,,,96493,<lshift>,1,417
8009,1,20,0,-1,-1.0,1.0,98423,<lshift>,1,446
8009,1,21,0,1,-1.0,-1.0,100383,<rshift>,1,486
8009,1,22,0,1,-1.0,-1.0,102383,<rshift>,1,445
8009,1,23,0,1,0.0,0.0,104342,<rshift>,1,476
8009,1,24,0,-1,-1.0,1.0,106332,<lshift>,1,475
8009,1,25,0,-1,1.0,-1.0,108321,<lshift>,1,385
8009,1,26,0,-1,-1.0,1.0,110221,<lshift>,1,434
8009,1,27,0,-1,,,112169,<lshift>,1,363
8009,1,28,0,1,-1.0,-1.0,114046,<lshift>,0,426
8009,1,29,0,1,1.0,1.0,115984,<rshift>,1,417
8009,1,30,0,-1,1.0,-1.0,117912,<lshift>,1,378
8009,1,31,0,1,0.0,0.0,119800,<rshift>,1,370
8009,1,32,0,-1,1.0,-1.0,121680,<lshift>,1,406
8009,1,33,0,1,1.0,1.0,123598,<rshift>,1,345
8009,1,34,0,1,1.0,1.0,125456,<rshift>,1,366
8009,1,35,0,1,1.0,1.0,127335,<rshift>,1,365
8009,1,36,0,-1,,,129213,<lshift>,1,446
8009,1,37,0,1,-1.0,-1.0,131172,<rshift>,1,395
8009,1,38,0,-1,0.0,0.0,133080,<lshift>,1,347
8009,1,39,0,-1,0.0,0.0,134938,<lshift>,1,429
8009,1,40,0,1,1.0,1.0,136878,<rshift>,1,365
8009,1,41,0,1,0.0,0.0,138757,<rshift>,1,354
8009,1,42,0,-1,1.0,-1.0,140624,<lshift>,1,345
8009,1,43,0,1,-1.0,-1.0,142484,<rshift>,1,416
8009,1,44,0,-1,1.0,-1.0,144414,<lshift>,1,332
8009,1,45,0,-1,,,146260,<lshift>,1,354
8009,1,46,0,-1,-1.0,1.0,148128,<lshift>,1,537
8009,1,47,0,1,1.0,1.0,150179,<rshift>,1,336
8009,1,48,0,1,-1.0,-1.0,152029,<rshift>,1,466
8009,1,49,0,1,0.0,0.0,154008,<rshift>,1,338
8009,1,50,0,1,0.0,0.0,155855,<rshift>,1,360
8009,1,51,0,-1,-1.0,1.0,157725,<lshift>,1,437
8009,1,52,0,-1,-1.0,1.0,159674,<lshift>,1,408
8009,1,53,0,1,,,161595,<rshift>,1,384
8009,1,54,0,-1,0.0,0.0,163492,<lshift>,1,327
8009,1,55,0,1,,,165330,<rshift>,1,517
8009,1,56,0,-1,1.0,-1.0,167361,<lshift>,1,395
8009,1,57,0,-1,-1.0,1.0,169269,<lshift>,1,427
8009,1,58,0,1,0.0,0.0,171209,<rshift>,1,357
8009,1,59,0,-1,-1.0,1.0,173078,<lshift>,1,385
8009,1,60,0,1,0.0,0.0,174977,<rshift>,1,336
8009,1,61,0,1,-1.0,-1.0,176826,<rshift>,1,458
8009,1,62,0,1,,,178797,<rshift>,1,413
8009,1,63,0,-1,1.0,-1.0,180725,<lshift>,1,406
8009,1,64,0,-1,0.0,0.0,182644,<lshift>,1,387
8009,1,65,0,1,0.0,0.0,184544,<rshift>,1,346
8009,1,66,0,-1,,,186403,<lshift>,1,313
8009,1,67,0,1,-1.0,-1.0,188230,<rshift>,1,395
8009,1,68,0,-1,1.0,-1.0,190139,<lshift>,1,338
8009,1,69,0,1,0.0,0.0,191990,<rshift>,1,315
8009,1,70,0,1,1.0,1.0,193815,<rshift>,1,451
8009,1,71,0,-1,-1.0,1.0,195778,<lshift>,1,417
8009,1,72,0,-1,,,197707,<lshift>,1,438
8009,1,73,0,1,0.0,0.0,199656,<rshift>,1,411
8009,1,74,0,1,-1.0,-1.0,201577,<rshift>,1,569
8009,1,75,0,-1,,,203658,<lshift>,1,406
8009,1,76,0,1,,,205577,<rshift>,1,366
8009,1,77,0,-1,0.0,0.0,207456,<lshift>,1,378
8009,1,78,0,1,1.0,1.0,209345,<rshift>,1,376
8009,1,79,0,-1,0.0,0.0,211234,<lshift>,1,326
8009,1,80,0,-1,0.0,0.0,213071,<lshift>,1,390
8009,1,81,0,1,,,214974,<rshift>,1,438
8009,1,82,0,-1,1.0,-1.0,216926,<lshift>,1,376
8009,1,83,0,-1,,,218815,<lshift>,1,415
8009,1,84,0,1,,,220745,<rshift>,1,365
8009,1,85,0,-1,1.0,-1.0,222623,<lshift>,1,316
8009,1,86,0,1,,,224454,<rshift>,1,341
8009,1,87,0,1,0.0,0.0,226309,<rshift>,1,346
8009,1,88,0,-1,,,228168,<lshift>,1,274
8009,1,89,0,1,1.0,1.0,229955,<rshift>,1,303
8009,1,90,0,1,1.0,1.0,231771,<rshift>,1,410
8009,1,91,0,1,-1.0,-1.0,233692,<rshift>,1,468
8009,1,92,0,1,,,235671,<rshift>,1,479
8009,1,93,0,1,,,237663,<rshift>,1,407
8009,1,94,0,1,-1.0,-1.0,239583,<rshift>,1,487
8009,1,95,0,1,,,241583,<rshift>,1,518
8009,1,96,0,1,,,243614,<rshift>,1,353
8009,1,97,0,-1,0.0,0.0,245480,<lshift>,1,358
8009,1,98,0,-1,,,247348,<lshift>,1,659
8009,1,99,0,1,0.0,0.0,249521,<rshift>,1,386
8009,1,100,0,1,,,251419,<rshift>,1,397
8009,1,101,0,-1,,,253330,<lshift>,1,313
8009,1,102,0,1,0.0,0.0,255157,<rshift>,1,387
8009,1,103,0,-1,,,257057,<lshift>,1,366
8009,1,104,0,1,1.0,1.0,258938,<rshift>,1,415
8009,1,105,0,-1,-1.0,1.0,260866,<lshift>,1,447
8009,1,106,0,1,,,262827,<rshift>,1,465
8009,1,107,0,1,,,264805,<rshift>,1,487
8009,1,108,0,-1,1.0,-1.0,266806,<lshift>,1,425
8009,1,109,0,1,-1.0,-1.0,268744,<rshift>,1,479
8009,1,110,0,1,-1.0,-1.0,270735,<rshift>,1,519
8009,1,111,0,1,,,272765,<rshift>,1,420
8009,1,112,0,1,-1.0,-1.0,274697,<rshift>,1,419
8009,1,113,0,1,,,276628,<rshift>,1,337
8009,1,114,0,1,,,278478,<rshift>,1,355
8009,1,115,0,-1,-1.0,1.0,280346,<lshift>,1,347
8009,1,116,0,-1,-1.0,1.0,282207,<lshift>,1,406
8009,1,117,0,1,0.0,0.0,284126,<rshift>,1,457
8009,1,118,0,-1,0.0,0.0,286094,<lshift>,1,327
8009,1,119,0,-1,-1.0,1.0,287932,<lshift>,1,447
8009,1,120,0,-1,0.0,0.0,289892,<lshift>,1,377
8009,1,121,0,1,,,291781,<rshift>,1,427
8009,1,122,0,-1,,,293722,<lshift>,1,425
8009,1,123,0,1,-1.0,-1.0,295660,<rshift>,1,497
8009,1,124,0,1,0.0,0.0,297673,<rshift>,1,467
8009,1,125,0,1,-1.0,-1.0,299652,<rshift>,1,518
8009,1,126,0,-1,0.0,0.0,301684,<lshift>,1,407
8009,1,127,0,1,1.0,1.0,303604,<rshift>,1,406
8009,1,128,0,-1,0.0,0.0,305524,<lshift>,1,367
8009,1,129,0,-1,-1.0,1.0,307402,<lshift>,1,468
8009,1,130,0,1,1.0,1.0,309381,<rshift>,1,366
8009,1,131,0,-1,0.0,0.0,311260,<lshift>,1,399
8009,1,132,0,1,0.0,0.0,313169,<rshift>,1,418
8009,1,133,0,1,1.0,1.0,315097,<rshift>,1,407
8009,1,134,0,1,1.0,1.0,317017,<rshift>,1,426
8009,1,135,0,-1,1.0,-1.0,318955,<lshift>,1,520
8009,1,136,0,-1,,,320988,<lshift>,1,415
8009,1,137,0,1,-1.0,-1.0,322916,<rshift>,1,467
8009,1,138,0,-1,1.0,-1.0,324896,<lshift>,1,397
8009,1,139,0,1,1.0,1.0,326807,<rshift>,1,344
8009,1,140,0,-1,0.0,0.0,328664,<lshift>,1,427
8009,1,141,0,-1,-1.0,1.0,330604,<lshift>,1,516
8009,1,142,0,-1,-1.0,1.0,332634,<lshift>,1,465
8009,1,143,0,1,0.0,0.0,334614,<rshift>,1,550
8009,1,144,0,-1,1.0,-1.0,336677,<lshift>,1,414
8009,1,145,0,-1,-1.0,1.0,338605,<lshift>,1,487
8009,1,146,0,-1,,,340607,<lshift>,1,404
8009,1,147,0,-1,,,342525,<lshift>,1,445
8009,1,148,0,-1,-1.0,1.0,344485,<lshift>,1,406
8009,1,149,0,-1,,,346403,<lshift>,1,509
8009,1,150,0,1,0.0,0.0,348424,<rshift>,1,500
8009,1,151,0,-1,1.0,-1.0,350434,<lshift>,1,438
8009,1,152,0,1,0.0,0.0,352385,<rshift>,1,337
8009,1,153,0,1,-1.0,-1.0,354232,<rshift>,1,550
8009,1,154,0,-1,1.0,-1.0,356295,<lshift>,1,609
8009,1,155,0,-1,,,358417,<lshift>,1,408
8009,1,156,0,-1,1.0,-1.0,360338,<lshift>,1,447
8009,1,157,0,-1,,,362299,<lshift>,1,466
8009,1,158,0,-1,1.0,-1.0,364278,<lshift>,1,417
8009,1,159,0,1,-1.0,-1.0,366209,<rshift>,1,466
8009,1,160,0,1,1.0,1.0,368189,<rshift>,1,436
8009,1,161,0,1,1.0,1.0,370139,<rshift>,1,393
8009,1,162,0,-1,0.0,0.0,372046,<lshift>,1,477
8009,1,163,0,1,,,374035,<rshift>,1,396
8009,1,164,0,-1,0.0,0.0,375946,<lshift>,1,356
8009,1,165,0,-1,-1.0,1.0,377814,<lshift>,1,498
8009,1,166,0,-1,,,379826,<lshift>,1,454
8009,1,167,0,1,1.0,1.0,381794,<rshift>,1,406
8009,1,168,0,-1,0.0,0.0,383713,<lshift>,1,368
8017,0,1,1,1,,,42708,<timeout>,0,801
8017,0,2,1,1,-1.0,-1.0,45506,<rshift>,1,532
8017,0,3,1,-1,0.0,0.0,47985,<lshift>,1,383
8017,0,4,1,1,0.0,0.0,50315,<rshift>,1,321
8017,0,5,1,-1,1.0,-1.0,52583,<lshift>,1,399
8017,0,6,1,-1,-1.0,1.0,54931,<lshift>,1,481
8017,0,7,1,-1,,,57360,<lshift>,1,511
8017,0,8,1,1,1.0,1.0,59820,<rshift>,1,326
8017,1,9,0,-1,-1.0,1.0,68831,<lshift>,1,445
8017,1,10,0,1,1.0,1.0,70816,<rshift>,1,362
8017,1,11,0,-1,1.0,-1.0,72715,<lshift>,1,351
8017,1,12,0,1,0.0,0.0,74605,<rshift>,1,325
8017,1,13,0,1,,,76466,<rshift>,1,475
8017,1,14,0,-1,0.0,0.0,78478,<lshift>,1,456
8017,1,15,0,1,0.0,0.0,80470,<rshift>,1,283
8017,1,16,0,-1,-1.0,1.0,82289,<lshift>,1,404
8017,1,17,0,1,-1.0,-1.0,84231,<rshift>,1,364
8017,1,18,0,1,0.0,0.0,86134,<lshift>,0,301
8017,1,19,0,1,-1.0,-1.0,87973,<rshift>,1,483
8017,1,20,0,-1,,,89995,<lshift>,1,495
8017,1,21,0,1,1.0,1.0,92029,<rshift>,1,352
8017,1,22,0,-1,0.0,0.0,93920,<lshift>,1,413
8017,1,23,0,-1,1.0,-1.0,95871,<lshift>,1,574
8017,1,24,0,-1,0.0,0.0,97984,<lshift>,1,516
8017,1,25,0,1,0.0,0.0,100039,<rshift>,1,362
8017,1,26,0,1,-1.0,-1.0,101940,<rshift>,1,554
8017,1,27,0,1,0.0,0.0,104034,<rshift>,1,432
8017,1,28,0,-1,1.0,-1.0,106005,<lshift>,1,403
8017,1,29,0,-1,,,107947,<lshift>,1,545
8017,1,30,0,1,1.0,1.0,110030,<rshift>,1,404
8017,1,31,0,1,1.0,1.0,111971,<rshift>,1,576
8017,1,32,0,1,,,114084,<rshift>,1,425
8017,1,33,0,1,-1.0,-1.0,116046,<rshift>,1,394
8017,1,34,0,1,0.0,0.0,117977,<rshift>,1,403
8017,1,35,0,-1,,,119917,<lshift>,1,424
8017,1,36,0,1,0.0,0.0,121879,<rshift>,1,424
8017,1,37,0,-1,,,123840,<lshift>,1,427
8017,1,38,0,-1,1.0,-1.0,125807,<rshift>,0,412
8017,1,39,0,-1,,,127758,<lshift>,1,462
8017,1,40,0,-1,1.0,-1.0,129760,<lshift>,1,412
8017,1,41,0,-1,,,131712,<lshift>,1,389
8017,1,42,0,1,1.0,1.0,133641,<rshift>,1,462
8017,1,43,0,-1,-1.0,1.0,135643,<lshift>,1,483
8017,1,44,0,-1,1.0,-1.0,137667,<lshift>,1,471
8017,1,45,0,1,1.0,1.0,139678,<rshift>,1,523
8017,1,46,0,-1,1.0,-1.0,141741,<lshift>,1,402
8017,1,47,0,1,,,143683,<rshift>,1,474
8017,1,48,0,1,1.0,1.0,145697,<rshift>,1,454
8017,1,49,0,-1,0.0,0.0,147689,<lshift>,1,526
8017,1,50,0,-1,-1.0,1.0,149751,<lshift>,1,741
8017,1,51,0,1,,,152029,<rshift>,1,444
8017,1,52,0,-1,-1.0,1.0,154011,<lshift>,1,434
8017,1,53,0,-1,0.0,0.0,155983,<lshift>,1,434
8017,1,54,0,1,0.0,0.0,157954,<rshift>,1,384
8017,1,55,0,-1,-1.0,1.0,159875,<lshift>,1,503
8017,1,56,0,1,,,161917,<rshift>,1,344
8017,1,57,0,1,1.0,1.0,163801,<rshift>,1,415
8017,1,58,0,-1,0.0,0.0,165755,<lshift>,1,433
8017,1,59,0,-1,0.0,0.0,167725,<lshift>,1,607
8017,1,60,0,1,,,169870,<rshift>,1,411
8017,1,61,0,1,1.0,1.0,171821,<rshift>,1,462
8017,1,62,0,1,0.0,0.0,173823,<rshift>,1,392
8017,1,63,0,-1,-1.0,1.0,175754,<lshift>,1,694
8017,1,64,0,1,1.0,1.0,177989,<rshift>,1,390
8017,1,65,0,1,0.0,0.0,179919,<rshift>,1,465
8017,1,66,0,-1,1.0,-1.0,181922,<lshift>,1,432
8017,1,67,0,1,-1.0,-1.0,183894,<rshift>,1,431
8017,1,68,0,-1,-1.0,1.0,185864,<lshift>,1,433
8017,1,69,0,1,1.0,1.0,187834,<rshift>,1,404
8017,1,70,0,-1,-1.0,1.0,189777,<lshift>,1,595
8017,1,71,0,-1,0.0,0.0,191910,<rshift>,0,392
8017,1,72,0,-1,-1.0,1.0,193840,<lshift>,1,485
8017,1,73,0,-1,0.0,0.0,195863,<lshift>,1,638
8017,1,74,0,1,0.0,0.0,198038,<rshift>,1,433
8017,1,75,0,-1,,,200008,<lshift>,1,482
8017,1,76,0,-1,-1.0,1.0,202030,<lshift>,1,564
8017,1,77,0,1,1.0,1.0,204134,<rshift>,1,431
8017,1,78,0,-1,0.0,0.0,206105,<lshift>,1,432
8017,1,79,0,-1,0.0,0.0,208076,<lshift>,1,422
8017,1,80,0,1,,,210037,<rshift>,1,503
8017,1,81,0,1,0.0,0.0,212080,<rshift>,1,504
8017,1,82,0,1,,,214123,<rshift>,1,798
8017,1,83,0,-1,1.0,-1.0,216462,<lshift>,1,462
8017,1,84,0,-1,-1.0,1.0,218464,<lshift>,1,584
8017,1,85,0,1,-1.0,-1.0,220588,<rshift>,1,594
8017,1,86,0,-1,-1.0,1.0,222722,<lshift>,1,493
8017,1,87,0,-1,-1.0,1.0,224753,<lshift>,1,661
8017,1,88,0,-1,,,226951,<lshift>,1,494
8017,1,89,0,-1,1.0,-1.0,228983,<lshift>,1,423
8017,1,90,0,-1,0.0,0.0,230944,<lshift>,1,424
8017,1,91,0,1,-1.0,-1.0,232904,<rshift>,1,608
8017,1,92,0,1,1.0,1.0,235049,<rshift>,1,476
8017,1,93,0,-1,-1.0,1.0,237063,<lshift>,1,484
8017,1,94,0,-1,1.0,-1.0,239087,<lshift>,1,485
8017,1,95,0,1,0.0,0.0,241112,<rshift>,1,361
8017,1,96,0,-1,0.0,0.0,243010,<lshift>,1,444
8017,1,97,0,-1,-1.0,1.0,244991,<lshift>,1,750
8017,1,98,0,1,1.0,1.0,247280,<rshift>,1,431
8017,1,99,0,-1,1.0,-1.0,249251,<lshift>,1,523
8017,1,100,0,1,0.0,0.0,251315,<rshift>,1,370
8017,1,101,0,-1,,,253224,<lshift>,1,564
8017,1,102,0,1,-1.0,-1.0,255328,<rshift>,1,503
8017,1,103,0,1,0.0,0.0,257371,<rshift>,1,431
8017,1,104,0,1,-1.0,-1.0,259341,<rshift>,1,607
8017,1,105,0,1,-1.0,-1.0,261487,<rshift>,1,514
8017,1,106,0,1,,,263539,<rshift>,1,405
8017,1,107,0,-1,0.0,0.0,265482,<lshift>,1,445
8017,1,108,0,-1,,,267464,<lshift>,1,482
8017,1,109,0,1,-1.0,-1.0,269485,<timeout>,0,802
8017,1,110,0,1,,,271824,<rshift>,1,522
8017,1,111,0,-1,0.0,0.0,273884,<lshift>,1,515
8017,1,112,0,1,-1.0,-1.0,275936,<rshift>,1,493
8017,1,113,0,1,,,277967,<rshift>,1,504
8017,1,114,0,1,-1.0,-1.0,280011,<rshift>,1,492
8017,1,115,0,1,0.0,0.0,282043,<rshift>,1,607
8017,1,116,0,1,1.0,1.0,284188,<rshift>,1,454
8017,1,117,0,1,1.0,1.0,286180,<rshift>,1,442
8017,1,118,0,1,,,288161,<rshift>,1,381
8017,1,119,0,1,,,290082,<rshift>,1,421
8017,1,120,0,1,-1.0,-1.0,292044,<rshift>,1,512
8017,1,121,0,-1,,,294096,<lshift>,1,481
8017,1,122,0,1,1.0,1.0,296117,<rshift>,1,432
8017,1,123,0,1,-1.0,-1.0,298090,<rshift>,1,564
8017,1,124,0,-1,1.0,-1.0,300192,<lshift>,1,455
8017,1,125,0,-1,1.0,-1.0,302185,<lshift>,1,474
8017,1,126,0,-1,,,304196,<lshift>,1,363
8017,1,127,0,1,,,306097,<rshift>,1,575
8017,1,128,0,1,-1.0,-1.0,308211,<rshift>,1,697
8017,1,129,0,-1,-1.0,1.0,310446,<lshift>,1,474
8017,1,130,0,1,,,312458,<rshift>,1,526
8017,1,131,0,1,,,314522,<rshift>,1,442
8017,1,132,0,-1,-1.0,1.0,316504,<lshift>,1,536
8017,1,133,0,-1,1.0,-1.0,318580,<lshift>,1,474
8017,1,134,0,1,,,320594,<rshift>,1,481
8017,1,135,0,-1,1.0,-1.0,322615,<lshift>,1,391
8017,1,136,0,-1,,,324546,<lshift>,1,513
8017,1,137,0,-1,1.0,-1.0,326599,<lshift>,1,483
8017,1,138,0,1,1.0,1.0,328622,<rshift>,1,432
8017,1,139,0,-1,,,330594,<lshift>,1,482
8017,1,140,0,-1,,,332617,<lshift>,1,482
8017,1,141,0,-1,0.0,0.0,334639,<timeout>,0,801
8017,1,142,0,1,-1.0,-1.0,336980,<rshift>,1,469
8017,1,143,0,-1,-1.0,1.0,338988,<lshift>,1,504
8017,1,144,0,-1,1.0,-1.0,341030,<lshift>,1,535
8017,1,145,0,1,0.0,0.0,343103,<rshift>,1,465
8017,1,146,0,-1,,,345105,<lshift>,1,393
8017,1,147,0,1,0.0,0.0,347037,<rshift>,1,69
8017,1,148,0,-1,,,348643,<lshift>,1,391
8017,1,149,0,-1,,,350574,<lshift>,1,604
8017,1,150,0,-1,,,352717,<lshift>,1,544
8017,1,151,0,1,1.0,1.0,354801,<rshift>,1,391
8017,1,152,0,1,-1.0,-1.0,356732,<rshift>,1,606
8017,1,153,0,-1,0.0,0.0,358877,<lshift>,1,627
8017,1,154,0,-1,-1.0,1.0,361043,<rshift>,0,482
8017,1,155,0,1,,,363065,<rshift>,1,584
8017,1,156,0,-1,,,365190,<lshift>,1,400
8017,1,157,0,1,-1.0,-1.0,367130,<rshift>,1,747
8017,1,158,0,1,0.0,0.0,369417,<rshift>,1,574
8017,1,159,0,-1,0.0,0.0,371530,<lshift>,1,463
8017,1,160,0,1,-1.0,-1.0,373531,<rshift>,1,585
8017,1,161,0,1,0.0,0.0,375655,<lshift>,0,425
8017,1,162,0,1,,,377618,<rshift>,1,607
8017,1,163,0,-1,1.0,-1.0,379762,<lshift>,1,465
8017,1,164,0,-1,0.0,0.0,381764,<lshift>,1,406
8017,1,165,0,1,1.0,1.0,383707,<rshift>,1,454
8017,1,166,0,1,,,385698,<rshift>,1,495
8017,1,167,0,-1,0.0,0.0,387732,<lshift>,1,435
8017,1,168,0,-1,1.0,-1.0,389703,<lshift>,1,544
7,0,1,1,1,-1.0,-1.0,18537,<timeout>,0,801
7,0,2,1,1,,,21336,<timeout>,0,801
7,0,3,1,1,1.0,1.0,24084,<timeout>,0,801
7,0,4,1,1,0.0,0.0,26833,<timeout>,0,801
7,0,5,1,-1,1.0,-1.0,29582,<timeout>,0,801
7,0,6,1,-1,-1.0,1.0,32332,<timeout>,0,801
7,0,7,1,-1,,,35081,<timeout>,0,801
7,0,8,1,-1,0.0,0.0,37831,<rshift>,0,405
7,1,9,0,-1,1.0,-1.0,43620,<lshift>,1,350
7,1,10,0,-1,-1.0,1.0,45508,<lshift>,1,328
7,1,11,0,-1,,,47491,<lshift>,1,309
7,1,12,0,1,-1.0,-1.0,49338,<lshift>,0,284
7,1,13,0,1,-1.0,-1.0,51160,<lshift>,0,348
7,1,14,0,1,-1.0,-1.0,53045,<rshift>,1,447
7,1,15,0,-1,-1.0,1.0,55030,<lshift>,1,498
7,1,16,0,-1,1.0,-1.0,57249,<lshift>,1,476
7,1,17,0,-1,-1.0,1.0,59264,<lshift>,1,570
7,1,18,0,-1,0.0,0.0,61372,<lshift>,1,641
7,1,19,0,1,0.0,0.0,63550,<lshift>,0,288
7,1,20,0,-1,,,65375,<lshift>,1,486
7,1,21,0,-1,,,67401,<lshift>,1,404
7,1,22,0,-1,-1.0,1.0,69344,<lshift>,1,365
7,1,23,0,1,-1.0,-1.0,71250,<rshift>,1,285
7,1,24,0,-1,1.0,-1.0,73076,<lshift>,1,517
7,1,25,0,-1,,,75133,<lshift>,1,304
7,1,26,0,1,-1.0,-1.0,76977,<lshift>,0,283
7,1,27,0,-1,0.0,0.0,78800,<rshift>,0,701
7,1,28,0,-1,1.0,-1.0,81038,<lshift>,1,459
7,1,29,0,1,1.0,1.0,83034,<rshift>,1,427
7,1,30,0,-1,1.0,-1.0,84998,<lshift>,1,357
7,1,31,0,1,1.0,1.0,86893,<rshift>,1,396
7,1,32,0,1,1.0,1.0,88827,<rshift>,1,375
7,1,33,0,1,1.0,1.0,90741,<rshift>,1,316
7,1,34,0,1,,,92596,<rshift>,1,305
7,1,35,0,-1,0.0,0.0,94441,<lshift>,1,479
7,1,36,0,-1,-1.0,1.0,96456,<lshift>,1,427
7,1,37,0,-1,,,98422,<lshift>,1,345
7,1,38,0,1,-1.0,-1.0,100307,<lshift>,0,303
7,1,39,0,1,,,102150,<rshift>,1,527
7,1,40,0,-1,1.0,-1.0,104217,<lshift>,1,324
7,1,41,0,-1,-1.0,1.0,106081,<lshift>,1,466
7,1,42,0,1,1.0,1.0,108087,<rshift>,1,417
7,1,43,0,1,1.0,1.0,110044,<rshift>,1,496
7,1,44,0,1,0.0,0.0,112080,<rshift>,1,345
7,1,45,0,-1,1.0,-1.0,113963,<rshift>,0,303
7,1,46,0,1,,,115806,<rshift>,1,407
7,1,47,0,-1,0.0,0.0,117754,<lshift>,1,407
7,1,48,0,1,-1.0,-1.0,119698,<rshift>,1,479
7,1,49,0,1,1.0,1.0,121713,<rshift>,1,439
7,1,50,0,1,0.0,0.0,123689,<rshift>,1,369
7,1,51,0,-1,-1.0,1.0,125594,<timeout>,0,801
7,1,52,0,-1,,,127932,<lshift>,1,532
7,1,53,0,-1,1.0,-1.0,130002,<lshift>,1,407
7,1,54,0,-1,,,131947,<lshift>,1,399
7,1,55,0,1,1.0,1.0,133885,<rshift>,1,458
7,1,56,0,1,-1.0,-1.0,135881,<rshift>,1,495
7,1,57,0,1,,,137916,<rshift>,1,375
7,1,58,0,1,0.0,0.0,139831,<rshift>,1,377
7,1,59,0,1,-1.0,-1.0,141746,<rshift>,1,467
7,1,60,0,1,0.0,0.0,143753,<rshift>,1,428
7,1,61,0,-1,1.0,-1.0,145719,<rshift>,0,284
7,1,62,0,1,-1.0,-1.0,147543,<rshift>,1,467
7,1,63,0,-1,,,149550,<lshift>,1,334
7,1,64,0,1,-1.0,-1.0,151424,<rshift>,1,487
7,1,65,0,1,-1.0,-1.0,153451,<lshift>,0,256
7,1,66,0,1,,,155247,<rshift>,1,375
7,1,67,0,1,,,157160,<rshift>,1,399
7,1,68,0,-1,-1.0,1.0,159096,<lshift>,1,440
7,1,69,0,1,,,161073,<rshift>,1,349
7,1,70,0,-1,1.0,-1.0,162962,<lshift>,1,396
7,1,71,0,1,0.0,0.0,164895,<rshift>,1,358
7,1,72,0,-1,-1.0,1.0,166789,<lshift>,1,480
7,1,73,0,1,0.0,0.0,168807,<rshift>,1,398
7,1,74,0,1,0.0,0.0,170742,<rshift>,1,369
7,1,75,0,-1,,,172648,<lshift>,1,405
7,1,76,0,-1,1.0,-1.0,174592,<lshift>,1,416
7,1,77,0,1,1.0,1.0,176547,<rshift>,1,446
7,1,78,0,-1,0.0,0.0,178533,<lshift>,1,520
7,1,79,0,-1,,,180590,<lshift>,1,497
7,1,80,0,-1,1.0,-1.0,182626,<lshift>,1,397
7,1,81,0,1,0.0,0.0,184562,<rshift>,1,415
7,1,82,0,1,1.0,1.0,186516,<rshift>,1,425
7,1,83,0,-1,0.0,0.0,188483,<lshift>,1,366
7,1,84,0,-1,0.0,0.0,190388,<lshift>,1,409
7,1,85,0,1,,,192334,<rshift>,1,385
7,1,86,0,1,,,194259,<rshift>,1,416
7,1,87,0,1,-1.0,-1.0,196214,<rshift>,1,480
7,1,88,0,1,,,198231,<rshift>,1,378
7,1,89,0,1,0.0,0.0,200146,<rshift>,1,339
7,1,90,0,1,-1.0,-1.0,202021,<rshift>,1,358
7,1,91,0,1,0.0,0.0,203916,<rshift>,1,338
7,1,92,0,-1,-1.0,1.0,205791,<lshift>,1,477
7,1,93,0,1,1.0,1.0,207807,<rshift>,1,405
7,1,94,0,1,,,209752,<rshift>,1,428
7,1,95,0,1,-1.0,-1.0,211718,<rshift>,1,507
7,1,96,0,1,0.0,0.0,213765,<rshift>,1,381
7,1,97,0,1,0.0,0.0,215683,<rshift>,1,519
7,1,98,0,-1,0.0,0.0,217740,<rshift>,0,296
7,1,99,0,-1,0.0,0.0,219574,<lshift>,1,468
7,1,100,0,1,,,221580,<rshift>,1,477
7,1,101,0,-1,,,223598,<lshift>,1,527
7,1,102,0,-1,-1.0,1.0,225665,<rshift>,0,274
7,1,103,0,-1,-1.0,1.0,227479,<lshift>,1,465
7,1,104,0,-1,1.0,-1.0,229484,<lshift>,1,498
7,1,105,0,1,0.0,0.0,231522,<rshift>,1,427
7,1,106,0,1,1.0,1.0,233487,<rshift>,1,509
7,1,107,0,-1,0.0,0.0,235533,<lshift>,1,522
7,1,108,0,-1,,,237592,<lshift>,1,481
7,1,109,0,1,0.0,0.0,239611,<lshift>,0,348
7,1,110,0,1,-1.0,-1.0,241496,<rshift>,1,509
7,1,111,0,1,0.0,0.0,243543,<rshift>,1,328
7,1,112,0,1,,,245407,<rshift>,1,398
7,1,113,0,-1,0.0,0.0,247344,<lshift>,1,449
7,1,114,0,-1,1.0,-1.0,249329,<lshift>,1,439
7,1,115,0,1,1.0,1.0,251306,<rshift>,1,467
7,1,116,0,-1,-1.0,1.0,253313,<rshift>,0,660
7,1,117,0,1,,,255513,<rshift>,1,447
7,1,118,0,-1,1.0,-1.0,257500,<rshift>,0,537
7,1,119,0,-1,,,259577,<rshift>,0,131
7,1,120,0,-1,,,261248,<rshift>,0,194
7,1,121,0,1,0.0,0.0,262983,<timeout>,0,801
7,1,122,0,1,,,265323,<rshift>,1,224
7,1,123,0,1,0.0,0.0,267087,<timeout>,0,801
7,1,124,0,-1,,,269427,<rshift>,0,670
7,1,125,0,-1,0.0,0.0,271637,<timeout>,0,801
7,1,126,0,1,1.0,1.0,273974,<rshift>,1,614
7,1,127,0,1,,,276125,<rshift>,1,317
7,1,128,0,1,1.0,1.0,277979,<rshift>,1,349
7,1,129,0,-1,1.0,-1.0,279866,<lshift>,1,499
7,1,130,0,1,-1.0,-1.0,281903,<rshift>,1,693
7,1,131,0,1,1.0,1.0,284134,<rshift>,1,367
7,1,132,0,1,1.0,1.0,286040,<rshift>,1,398
7,1,133,0,1,1.0,1.0,287976,<rshift>,1,325
7,1,134,0,-1,-1.0,1.0,289841,<rshift>,0,314
7,1,135,0,1,1.0,1.0,291695,<rshift>,1,275
7,1,136,0,-1,-1.0,1.0,293509,<rshift>,0,296
7,1,137,0,-1,1.0,-1.0,295344,<rshift>,0,335
7,1,138,0,1,0.0,0.0,297219,<rshift>,1,266
7,1,139,0,-1,,,299023,<rshift>,0,376
7,1,140,0,1,,,300940,<rshift>,1,426
7,1,141,0,-1,0.0,0.0,302906,<rshift>,0,347
7,1,142,0,-1,0.0,0.0,304792,<rshift>,0,286
7,1,143,0,-1,-1.0,1.0,306617,<timeout>,0,801
7,1,144,0,-1,,,308958,<rshift>,0,369
7,1,145,0,-1,-1.0,1.0,310866,<lshift>,1,458
7,1,146,0,-1,0.0,0.0,312861,<lshift>,1,368
7,1,147,0,-1,-1.0,1.0,314767,<lshift>,1,407
7,1,148,0,1,-1.0,-1.0,316712,<rshift>,1,509
7,1,149,0,1,0.0,0.0,318759,<rshift>,1,429
7,1,150,0,-1,,,320725,<lshift>,1,448
7,1,151,0,1,,,322712,<rshift>,1,377
7,1,152,0,-1,,,324628,<lshift>,1,366
7,1,153,0,1,-1.0,-1.0,326534,<rshift>,1,489
7,1,154,0,-1,,,328563,<rshift>,0,395
7,1,155,0,-1,-1.0,1.0,330498,<lshift>,1,529
7,1,156,0,-1,1.0,-1.0,332566,<lshift>,1,445
7,1,157,0,-1,0.0,0.0,334552,<lshift>,1,409
7,1,158,0,1,,,336498,<rshift>,1,426
7,1,159,0,-1,-1.0,1.0,338464,<lshift>,1,468
7,1,160,0,-1,0.0,0.0,340472,<lshift>,1,579
7,1,161,0,-1,1.0,-1.0,342590,<lshift>,1,427
7,1,162,0,1,1.0,1.0,344557,<rshift>,1,448
7,1,163,0,-1,1.0,-1.0,346545,<lshift>,1,539
7,1,164,0,-1,0.0,0.0,348624,<lshift>,1,473
7,1,165,0,1,-1.0,-1.0,350634,<rshift>,1,490
7,1,166,0,-1,0.0,0.0,352662,<lshift>,1,381
7,1,167,0,-1,0.0,0.0,354579,<lshift>,1,317
7,1,168,0,1,,,356433,<rshift>,1,469
8028,0,1,1,1,1.0,1.0,42854,<timeout>,0,801
8028,0,2,1,-1,-1.0,1.0,45575,<lshift>,1,609
8028,0,3,1,1,-1.0,-1.0,48101,<rshift>,1,510
8028,0,4,1,-1,0.0,0.0,50526,<lshift>,1,501
8028,0,5,1,-1,,,52938,<lshift>,1,380
8028,0,6,1,-1,1.0,-1.0,55233,<lshift>,1,408
8028,0,7,1,1,,,57556,<rshift>,1,340
8028,0,8,1,1,0.0,0.0,59811,<rshift>,1,299
8028,1,9,0,-1,0.0,0.0,67191,<lshift>,1,319
8028,1,10,0,1,-1.0,-1.0,69023,<lshift>,0,360
8028,1,11,0,1,1.0,1.0,70898,<rshift>,1,359
8028,1,12,0,1,0.0,0.0,72772,<rshift>,1,334
8028,1,13,0,1,,,74618,<rshift>,1,322
8028,1,14,0,1,,,76453,<rshift>,1,365
8028,1,15,0,-1,1.0,-1.0,78329,<lshift>,1,353
8028,1,16,0,-1,0.0,0.0,80195,<lshift>,1,365
8028,1,17,0,-1,0.0,0.0,82070,<lshift>,1,335
8028,1,18,0,-1,-1.0,1.0,83915,<rshift>,0,343
8028,1,19,0,1,-1.0,-1.0,85771,<rshift>,1,454
8028,1,20,0,1,0.0,0.0,87738,<rshift>,1,345
8028,1,21,0,-1,-1.0,1.0,89594,<lshift>,1,434
8028,1,22,0,1,1.0,1.0,91541,<rshift>,1,403
8028,1,23,0,1,,,93457,<rshift>,1,414
8028,1,24,0,1,0.0,0.0,95384,<rshift>,1,352
8028,1,25,0,-1,0.0,0.0,97248,<lshift>,1,353
8028,1,26,0,-1,1.0,-1.0,99114,<lshift>,1,340
8028,1,27,0,-1,,,100969,<rshift>,0,402
8028,1,28,0,-1,,,102884,<lshift>,1,405
8028,1,29,0,-1,-1.0,1.0,104802,<lshift>,1,364
8028,1,30,0,-1,1.0,-1.0,106677,<lshift>,1,364
8028,1,31,0,1,1.0,1.0,108552,<rshift>,1,361
8028,1,32,0,1,1.0,1.0,110426,<rshift>,1,353
8028,1,33,0,-1,-1.0,1.0,112292,<lshift>,1,372
8028,1,34,0,1,0.0,0.0,114177,<rshift>,1,354
8028,1,35,0,1,0.0,0.0,116042,<rshift>,1,325
8028,1,36,0,1,-1.0,-1.0,117878,<lshift>,0,364
8028,1,37,0,-1,1.0,-1.0,119755,<lshift>,1,362
8028,1,38,0,1,1.0,1.0,121630,<rshift>,1,351
8028,1,39,0,1,,,123494,<rshift>,1,363
8028,1,40,0,1,-1.0,-1.0,125370,<lshift>,0,351
8028,1,41,0,1,1.0,1.0,127236,<rshift>,1,331
8028,1,42,0,-1,,,129080,<lshift>,1,383
8028,1,43,0,1,-1.0,-1.0,130976,<rshift>,1,412
8028,1,44,0,-1,,,132901,<lshift>,1,406
8028,1,45,0,1,1.0,1.0,134820,<rshift>,1,372
8028,1,46,0,1,1.0,1.0,136704,<rshift>,1,355
8028,1,47,0,1,-1.0,-1.0,138572,<rshift>,1,443
8028,1,48,0,-1,1.0,-1.0,140527,<lshift>,1,587
8028,1,49,0,-1,0.0,0.0,142627,<lshift>,1,355
8028,1,50,0,1,-1.0,-1.0,144493,<rshift>,1,332
8028,1,51,0,1,-1.0,-1.0,146338,<rshift>,1,352
8028,1,52,0,-1,-1.0,1.0,148203,<lshift>,1,435
8028,1,53,0,1,0.0,0.0,150151,<rshift>,1,333
8028,1,54,0,1,0.0,0.0,151995,<rshift>,1,333
8028,1,55,0,-1,-1.0,1.0,153839,<lshift>,1,341
8028,1,56,0,1,,,155695,<rshift>,1,362
8028,1,57,0,1,1.0,1.0,157570,<rshift>,1,373
8028,1,58,0,1,0.0,0.0,159456,<rshift>,1,331
8028,1,59,0,-1,-1.0,1.0,161299,<lshift>,1,301
8028,1,60,0,1,-1.0,-1.0,163113,<rshift>,1,508
8028,1,61,0,1,1.0,1.0,165132,<rshift>,1,333
8028,1,62,0,-1,,,166977,<lshift>,1,324
8028,1,63,0,1,1.0,1.0,168812,<rshift>,1,334
8028,1,64,0,1,-1.0,-1.0,170657,<rshift>,1,372
8028,1,65,0,-1,0.0,0.0,172542,<lshift>,1,292
8028,1,66,0,-1,1.0,-1.0,174345,<lshift>,1,373
8028,1,67,0,1,1.0,1.0,176231,<rshift>,1,321
8028,1,68,0,-1,1.0,-1.0,178065,<lshift>,1,356
8028,1,69,0,1,,,179934,<rshift>,1,332
8028,1,70,0,1,0.0,0.0,181779,<rshift>,1,363
8028,1,71,0,1,1.0,1.0,183655,<lshift>,0,320
8028,1,72,0,-1,1.0,-1.0,185489,<lshift>,1,412
8028,1,73,0,1,-1.0,-1.0,187414,<lshift>,0,362
8028,1,74,0,-1,,,189289,<lshift>,1,363
8028,1,75,0,-1,-1.0,1.0,191165,<lshift>,1,465
8028,1,76,0,-1,0.0,0.0,193141,<lshift>,1,346
8028,1,77,0,1,,,194996,<rshift>,1,394
8028,1,78,0,1,1.0,1.0,196902,<rshift>,1,321
8028,1,79,0,1,,,198735,<rshift>,1,311
8028,1,80,0,1,,,200559,<lshift>,0,300
8028,1,81,0,-1,,,202372,<lshift>,1,363
8028,1,82,0,1,0.0,0.0,204248,<rshift>,1,385
8028,1,83,0,1,-1.0,-1.0,206144,<rshift>,1,452
8028,1,84,0,-1,0.0,0.0,208109,<lshift>,1,429
8028,1,85,0,1,,,210050,<rshift>,1,361
8028,1,86,0,-1,,,211925,<lshift>,1,453
8028,1,87,0,-1,-1.0,1.0,213892,<lshift>,1,363
8028,1,88,0,1,,,215768,<rshift>,1,401
8028,1,89,0,-1,1.0,-1.0,217683,<lshift>,1,392
8028,1,90,0,1,0.0,0.0,219588,<rshift>,1,365
8028,1,91,0,1,-1.0,-1.0,221466,<lshift>,0,394
8028,1,92,0,1,,,223370,<rshift>,1,395
8028,1,93,0,-1,-1.0,1.0,225276,<lshift>,1,475
8028,1,94,0,1,,,227262,<rshift>,1,394
8028,1,95,0,-1,,,229169,<lshift>,1,413
8028,1,96,0,1,1.0,1.0,231095,<rshift>,1,361
8028,1,97,0,-1,0.0,0.0,232969,<lshift>,1,364
8028,1,98,0,-1,1.0,-1.0,234844,<lshift>,1,362
8028,1,99,0,1,,,236719,<rshift>,1,397
8028,1,100,0,-1,1.0,-1.0,238629,<lshift>,1,351
8028,1,101,0,-1,-1.0,1.0,240494,<lshift>,1,421
8028,1,102,0,1,-1.0,-1.0,242429,<rshift>,1,474
8028,1,103,0,-1,0.0,0.0,244416,<lshift>,1,415
8028,1,104,0,-1,0.0,0.0,246343,<lshift>,1,364
8028,1,105,0,-1,,,248219,<lshift>,1,423
8028,1,106,0,1,0.0,0.0,250155,<rshift>,1,325
8028,1,107,0,1,-1.0,-1.0,251989,<rshift>,1,487
8028,1,108,0,1,0.0,0.0,253987,<rshift>,1,356
8028,1,109,0,1,,,255853,<rshift>,1,354
8028,1,110,0,1,-1.0,-1.0,257719,<rshift>,1,445
8028,1,111,0,-1,0.0,0.0,259676,<lshift>,1,395
8028,1,112,0,-1,,,261582,<lshift>,1,404
8028,1,113,0,-1,0.0,0.0,263499,<lshift>,1,333
8028,1,114,0,-1,0.0,0.0,265343,<lshift>,1,314
8028,1,115,0,-1,0.0,0.0,267168,<lshift>,1,304
8028,1,116,0,-1,0.0,0.0,268985,<lshift>,1,393
8028,1,117,0,1,0.0,0.0,270890,<rshift>,1,342
8028,1,118,0,-1,-1.0,1.0,272745,<lshift>,1,566
8028,1,119,0,-1,0.0,0.0,274824,<lshift>,1,332
8028,1,120,0,-1,0.0,0.0,276668,<lshift>,1,313
8028,1,121,0,1,-1.0,-1.0,278493,<rshift>,1,606
8028,1,122,0,-1,-1.0,1.0,280612,<lshift>,1,536
8028,1,123,0,1,0.0,0.0,282660,<rshift>,1,457
8028,1,124,0,-1,1.0,-1.0,284627,<lshift>,1,506
8028,1,125,0,1,1.0,1.0,286646,<rshift>,1,374
8028,1,126,0,1,-1.0,-1.0,288533,<lshift>,0,361
8028,1,127,0,-1,-1.0,1.0,290407,<lshift>,1,443
8028,1,128,0,1,0.0,0.0,292363,<rshift>,1,394
8028,1,129,0,1,1.0,1.0,294268,<rshift>,1,383
8028,1,130,0,-1,,,296164,<lshift>,1,342
8028,1,131,0,1,-1.0,-1.0,298020,<rshift>,1,354
8028,1,132,0,-1,1.0,-1.0,299887,<lshift>,1,343
8028,1,133,0,-1,,,301744,<lshift>,1,413
8028,1,134,0,1,1.0,1.0,303670,<rshift>,1,382
8028,1,135,0,1,,,305565,<rshift>,1,433
8028,1,136,0,-1,1.0,-1.0,307511,<lshift>,1,425
8028,1,137,0,-1,1.0,-1.0,309448,<lshift>,1,396
8028,1,138,0,1,1.0,1.0,311355,<rshift>,1,363
8028,1,139,0,-1,1.0,-1.0,313229,<lshift>,1,346
8028,1,140,0,-1,-1.0,1.0,315086,<rshift>,0,364
8028,1,141,0,1,-1.0,-1.0,316962,<rshift>,1,494
8028,1,142,0,-1,0.0,0.0,318969,<lshift>,1,393
8028,1,143,0,1,,,320873,<rshift>,1,330
8028,1,144,0,-1,0.0,0.0,322717,<lshift>,1,394
8028,1,145,0,1,1.0,1.0,324623,<rshift>,1,403
8028,1,146,0,-1,1.0,-1.0,326540,<lshift>,1,391
8028,1,147,0,-1,,,328444,<lshift>,1,682
8028,1,148,0,-1,1.0,-1.0,330640,<lshift>,1,381
8028,1,149,0,1,0.0,0.0,332534,<rshift>,1,364
8028,1,150,0,-1,-1.0,1.0,334410,<lshift>,1,535
8028,1,151,0,-1,,,336458,<lshift>,1,456
8028,1,152,0,-1,,,338424,<lshift>,1,457
8028,1,153,0,1,,,340393,<rshift>,1,424
8028,1,154,0,1,0.0,0.0,342329,<rshift>,1,375
8028,1,155,0,-1,,,344214,<lshift>,1,423
8028,1,156,0,1,0.0,0.0,346150,<rshift>,1,333
8028,1,157,0,-1,-1.0,1.0,347994,<lshift>,1,435
8028,1,158,0,-1,-1.0,1.0,349942,<lshift>,1,444
8028,1,159,0,-1,,,351899,<rshift>,0,433
8028,1,160,0,-1,,,353845,<lshift>,1,424
8028,1,161,0,1,0.0,0.0,355783,<rshift>,1,383
8028,1,162,0,-1,-1.0,1.0,357678,<lshift>,1,588
8028,1,163,0,-1,-1.0,1.0,359780,<lshift>,1,445
8028,1,164,0,-1,,,361738,<lshift>,1,525
8028,1,165,0,-1,1.0,-1.0,363776,<lshift>,1,332
8028,1,166,0,1,,,365621,<rshift>,1,474
8028,1,167,0,-1,1.0,-1.0,367607,<lshift>,1,333
8028,1,168,0,1,,,369451,<rshift>,1,455
8107,0,1,1,1,,,1561736,<timeout>,0,801
8107,0,2,1,1,-1.0,-1.0,1564535,<timeout>,0,802
8107,0,3,1,-1,1.0,-1.0,1567282,<timeout>,0,801
8107,0,4,1,1,0.0,0.0,1570029,<timeout>,0,801
8107,0,5,1,1,1.0,1.0,1572777,<timeout>,0,801
8107,0,6,1,-1,-1.0,1.0,1575527,<rshift>,0,471
8107,0,7,1,-1,0.0,0.0,1577947,<lshift>,1,464
8107,0,8,1,-1,,,1580359,<lshift>,1,453
8107,1,9,0,1,0.0,0.0,1595434,<rshift>,1,271
8107,1,10,0,-1,-1.0,1.0,1597243,<lshift>,1,458
8107,1,11,0,-1,-1.0,1.0,1599241,<rshift>,0,398
8107,1,12,0,-1,1.0,-1.0,1601179,<lshift>,1,429
8107,1,13,0,-1,1.0,-1.0,1603148,<lshift>,1,419
8107,1,14,0,-1,0.0,0.0,1605107,<lshift>,1,359
8107,1,15,0,1,,,1607002,<rshift>,1,432
8107,1,16,0,-1,,,1608971,<lshift>,1,341
8107,1,17,0,-1,1.0,-1.0,1610849,<lshift>,1,400
8107,1,18,0,1,0.0,0.0,1612787,<rshift>,1,330
8107,1,19,0,1,0.0,0.0,1614654,<rshift>,1,340
8107,1,20,0,1,-1.0,-1.0,1616531,<lshift>,0,369
8107,1,21,0,-1,-1.0,1.0,1618439,<lshift>,1,400
8107,1,22,0,-1,1.0,-1.0,1620378,<lshift>,1,390
8107,1,23,0,-1,-1.0,1.0,1622309,<lshift>,1,469
8107,1,24,0,-1,1.0,-1.0,1624318,<lshift>,1,449
8107,1,25,0,1,-1.0,-1.0,1626307,<rshift>,1,286
8107,1,26,0,1,-1.0,-1.0,1628132,<rshift>,1,553
8107,1,27,0,-1,-1.0,1.0,1630222,<lshift>,1,491
8107,1,28,0,-1,1.0,-1.0,1632251,<lshift>,1,522
8107,1,29,0,1,1.0,1.0,1634311,<rshift>,1,411
8107,1,30,0,-1,0.0,0.0,1636260,<lshift>,1,476
8107,1,31,0,1,-1.0,-1.0,1638273,<rshift>,1,348
8107,1,32,0,1,,,1640161,<rshift>,1,380
8107,1,33,0,-1,-1.0,1.0,1642081,<rshift>,0,298
8107,1,34,0,-1,0.0,0.0,1643917,<lshift>,1,530
8107,1,35,0,1,,,1645986,<rshift>,1,378
8107,1,36,0,1,,,1647905,<rshift>,1,409
8107,1,37,0,1,0.0,0.0,1649854,<rshift>,1,399
8107,1,38,0,1,1.0,1.0,1651790,<rshift>,1,442
8107,1,39,0,-1,1.0,-1.0,1653769,<lshift>,1,370
8107,1,40,0,1,-1.0,-1.0,1655677,<rshift>,1,491
8107,1,41,0,-1,1.0,-1.0,1657706,<lshift>,1,370
8107,1,42,0,-1,,,1659615,<lshift>,1,590
8107,1,43,0,-1,1.0,-1.0,1661745,<lshift>,1,410
8107,1,44,0,-1,1.0,-1.0,1663694,<lshift>,1,388
8107,1,45,0,-1,0.0,0.0,1665622,<lshift>,1,440
8107,1,46,0,-1,,,1667601,<lshift>,1,407
8107,1,47,0,1,0.0,0.0,1669550,<rshift>,1,379
8107,1,48,0,1,1.0,1.0,1671468,<rshift>,1,389
8107,1,49,0,1,1.0,1.0,1673398,<rshift>,1,508
8107,1,50,0,1,-1.0,-1.0,1675445,<rshift>,1,471
8107,1,51,0,-1,0.0,0.0,1677454,<lshift>,1,483
8107,1,52,0,-1,0.0,0.0,1679474,<lshift>,1,411
8107,1,53,0,-1,0.0,0.0,1681422,<lshift>,1,393
8107,1,54,0,-1,,,1683354,<lshift>,1,449
8107,1,55,0,1,,,1685343,<rshift>,1,520
8107,1,56,0,-1,-1.0,1.0,1687402,<lshift>,1,550
8107,1,57,0,1,1.0,1.0,1689492,<rshift>,1,431
8107,1,58,0,-1,-1.0,1.0,1691463,<lshift>,1,489
8107,1,59,0,-1,1.0,-1.0,1693493,<lshift>,1,469
8107,1,60,0,1,-1.0,-1.0,1695502,<rshift>,1,622
8107,1,61,0,-1,,,1697664,<lshift>,1,398
8107,1,62,0,1,-1.0,-1.0,1699601,<rshift>,1,441
8107,1,63,0,-1,0.0,0.0,1701580,<lshift>,1,363
8107,1,64,0,-1,,,1703479,<lshift>,1,381
8107,1,65,0,1,-1.0,-1.0,1705399,<lshift>,0,330
8107,1,66,0,1,1.0,1.0,1707267,<rshift>,1,481
8107,1,67,0,-1,-1.0,1.0,1709288,<lshift>,1,449
8107,1,68,0,-1,-1.0,1.0,1711278,<lshift>,1,438
8107,1,69,0,-1,,,1713256,<lshift>,1,408
8107,1,70,0,1,-1.0,-1.0,1715205,<rshift>,1,450
8107,1,71,0,1,,,1717196,<rshift>,1,590
8107,1,72,0,-1,-1.0,1.0,1719327,<lshift>,1,451
8107,1,73,0,1,,,1721318,<rshift>,1,491
8107,1,74,0,1,0.0,0.0,1723347,<rshift>,1,423
8107,1,75,0,-1,-1.0,1.0,1725308,<lshift>,1,562
8107,1,76,0,1,,,1727408,<rshift>,1,401
8107,1,77,0,-1,1.0,-1.0,1729347,<lshift>,1,399
8107,1,78,0,-1,1.0,-1.0,1731285,<lshift>,1,463
8107,1,79,0,-1,0.0,0.0,1733286,<lshift>,1,584
8107,1,80,0,1,,,1735406,<rshift>,1,460
8107,1,81,0,1,,,1737407,<rshift>,1,428
8107,1,82,0,1,-1.0,-1.0,1739376,<rshift>,1,530
8107,1,83,0,-1,,,1741447,<lshift>,1,489
8107,1,84,0,-1,-1.0,1.0,1743477,<lshift>,1,490
8107,1,85,0,-1,1.0,-1.0,1745506,<lshift>,1,461
8107,1,86,0,1,,,1747506,<rshift>,1,461
8107,1,87,0,-1,,,1749505,<lshift>,1,522
8107,1,88,0,1,1.0,1.0,1751566,<rshift>,1,470
8107,1,89,0,1,-1.0,-1.0,1753575,<rshift>,1,522
8107,1,90,0,-1,0.0,0.0,1755636,<lshift>,1,450
8107,1,91,0,-1,,,1757625,<lshift>,1,540
8107,1,92,0,-1,0.0,0.0,1759706,<lshift>,1,471
8107,1,93,0,1,,,1761716,<rshift>,1,630
8107,1,94,0,1,0.0,0.0,1763888,<rshift>,1,410
8107,1,95,0,1,0.0,0.0,1765837,<rshift>,1,400
8107,1,96,0,1,-1.0,-1.0,1767776,<rshift>,1,288
8107,1,97,0,1,0.0,0.0,1769602,<rshift>,1,414
8107,1,98,0,1,-1.0,-1.0,1771553,<rshift>,1,482
8107,1,99,0,-1,,,1773574,<lshift>,1,431
8107,1,100,0,-1,1.0,-1.0,1775544,<lshift>,1,320
8107,1,101,0,-1,0.0,0.0,1777403,<lshift>,1,369
8107,1,102,0,1,0.0,0.0,1779310,<rshift>,1,684
8107,1,103,0,1,-1.0,-1.0,1781532,<rshift>,1,794
8107,1,104,0,1,1.0,1.0,1783866,<rshift>,1,420
8107,1,105,0,-1,,,1785827,<lshift>,1,501
8107,1,106,0,1,1.0,1.0,1787868,<rshift>,1,438
8107,1,107,0,-1,,,1789847,<lshift>,1,408
8107,1,108,0,-1,0.0,0.0,1791795,<lshift>,1,372
8107,1,109,0,1,1.0,1.0,1793704,<rshift>,1,382
8107,1,110,0,1,,,1795624,<rshift>,1,411
8107,1,111,0,1,1.0,1.0,1797573,<rshift>,1,572
8107,1,112,0,-1,,,1799684,<lshift>,1,492
8107,1,113,0,1,0.0,0.0,1801715,<rshift>,1,415
8107,1,114,0,-1,-1.0,1.0,1803668,<lshift>,1,601
8107,1,115,0,1,-1.0,-1.0,1805809,<rshift>,1,593
8107,1,116,0,1,1.0,1.0,1807943,<rshift>,1,389
8107,1,117,0,1,1.0,1.0,1809872,<rshift>,1,389
8107,1,118,0,-1,0.0,0.0,1811802,<lshift>,1,481
8107,1,119,0,-1,1.0,-1.0,1813822,<lshift>,1,403
8107,1,120,0,1,,,1815763,<rshift>,1,411
8107,1,121,0,-1,,,1817712,<lshift>,1,512
8107,1,122,0,1,0.0,0.0,1819763,<rshift>,1,433
8107,1,123,0,1,0.0,0.0,1821733,<rshift>,1,421
8107,1,124,0,1,,,1823692,<rshift>,1,531
8107,1,125,0,-1,,,1825763,<lshift>,1,500
8107,1,126,0,1,-1.0,-1.0,1827802,<rshift>,1,480
8107,1,127,0,1,0.0,0.0,1829822,<rshift>,1,471
8107,1,128,0,1,,,1831832,<rshift>,1,367
8107,1,129,0,-1,0.0,0.0,1833741,<lshift>,1,491
8107,1,130,0,1,1.0,1.0,1835771,<rshift>,1,410
8107,1,131,0,-1,0.0,0.0,1837721,<lshift>,1,451
8107,1,132,0,1,1.0,1.0,1839709,<rshift>,1,352
8107,1,133,0,1,0.0,0.0,1841598,<lshift>,0,355
8107,1,134,0,-1,,,1843489,<lshift>,1,602
8107,1,135,0,1,1.0,1.0,1845630,<rshift>,1,482
8107,1,136,0,1,1.0,1.0,1847651,<rshift>,1,583
8107,1,137,0,1,,,1849773,<rshift>,1,450
8107,1,138,0,-1,-1.0,1.0,1851762,<lshift>,1,602
8107,1,139,0,-1,,,1853904,<lshift>,1,612
8107,1,140,0,1,0.0,0.0,1856057,<rshift>,1,471
8107,1,141,0,-1,-1.0,1.0,1858067,<lshift>,1,570
8107,1,142,0,-1,1.0,-1.0,1860178,<lshift>,1,401
8107,1,143,0,1,1.0,1.0,1862117,<rshift>,1,482
8107,1,144,0,1,-1.0,-1.0,1864138,<timeout>,0,801
8107,1,145,0,1,-1.0,-1.0,1866477,<rshift>,1,497
8107,1,146,0,1,0.0,0.0,1868513,<rshift>,1,371
8107,1,147,0,-1,-1.0,1.0,1870421,<lshift>,1,583
8107,1,148,0,1,,,1872543,<rshift>,1,441
8107,1,149,0,-1,1.0,-1.0,1874524,<lshift>,1,338
8107,1,150,0,1,0.0,0.0,1876402,<rshift>,1,349
8107,1,151,0,-1,-1.0,1.0,1878290,<rshift>,0,269
8107,1,152,0,1,,,1880100,<rshift>,1,380
8107,1,153,0,1,0.0,0.0,1882020,<rshift>,1,385
8107,1,154,0,-1,,,1883944,<lshift>,1,464
8107,1,155,0,-1,,,1885945,<rshift>,0,393
8107,1,156,0,-1,0.0,0.0,1887875,<lshift>,1,504
8107,1,157,0,-1,-1.0,1.0,1889915,<lshift>,1,606
8107,1,158,0,1,0.0,0.0,1892059,<rshift>,1,414
8107,1,159,0,-1,0.0,0.0,1894010,<lshift>,1,485
8107,1,160,0,-1,1.0,-1.0,1896032,<lshift>,1,440
8107,1,161,0,1,,,1898011,<rshift>,1,512
8107,1,162,0,1,-1.0,-1.0,1900063,<lshift>,0,481
8107,1,163,0,-1,-1.0,1.0,1902085,<lshift>,1,491
8107,1,164,0,1,1.0,1.0,1904116,<rshift>,1,600
8107,1,165,0,-1,0.0,0.0,1906257,<lshift>,1,552
8107,1,166,0,-1,0.0,0.0,1908349,<lshift>,1,413
8107,1,167,0,1,1.0,1.0,1910298,<rshift>,1,492
8107,1,168,0,-1,1.0,-1.0,1912328,<lshift>,1,383
8171,0,1,1,-1,1.0,-1.0,64311,<lshift>,1,763
8171,0,2,1,1,,,66995,<rshift>,1,415
8171,0,3,1,-1,,,69327,<lshift>,1,437
8171,0,4,1,1,1.0,1.0,71678,<rshift>,1,327
8171,0,5,1,-1,-1.0,1.0,73920,<lshift>,1,406
8171,0,6,1,1,0.0,0.0,76241,<rshift>,1,349
8171,0,7,1,-1,0.0,0.0,78504,<lshift>,1,317
8171,0,8,1,1,-1.0,-1.0,80735,<rshift>,1,457
8171,1,9,0,1,,,88916,<rshift>,1,465
8171,1,10,0,-1,1.0,-1.0,90895,<lshift>,1,345
8171,1,11,0,-1,1.0,-1.0,92755,<lshift>,1,395
8171,1,12,0,-1,,,94661,<lshift>,1,419
8171,1,13,0,1,-1.0,-1.0,96592,<rshift>,1,447
8171,1,14,0,1,0.0,0.0,98550,<rshift>,1,401
8171,1,15,0,-1,1.0,-1.0,100462,<lshift>,1,335
8171,1,16,0,-1,1.0,-1.0,102310,<lshift>,1,438
8171,1,17,0,-1,-1.0,1.0,104261,<lshift>,1,576
8171,1,18,0,1,1.0,1.0,106351,<rshift>,1,415
8171,1,19,0,-1,1.0,-1.0,108280,<lshift>,1,313
8171,1,20,0,-1,0.0,0.0,110108,<lshift>,1,386
8171,1,21,0,-1,,,112007,<lshift>,1,396
8171,1,22,0,-1,1.0,-1.0,113917,<lshift>,1,395
8171,1,23,0,-1,,,115826,<lshift>,1,367
8171,1,24,0,1,,,117704,<rshift>,1,448
8171,1,25,0,1,1.0,1.0,119664,<rshift>,1,387
8171,1,26,0,1,0.0,0.0,121563,<rshift>,1,397
8171,1,27,0,1,-1.0,-1.0,123472,<rshift>,1,465
8171,1,28,0,1,,,125451,<rshift>,1,405
8171,1,29,0,1,0.0,0.0,127370,<rshift>,1,365
8171,1,30,0,-1,0.0,0.0,129247,<lshift>,1,377
8171,1,31,0,1,-1.0,-1.0,131136,<rshift>,1,579
8171,1,32,0,1,-1.0,-1.0,133229,<rshift>,1,465
8171,1,33,0,-1,,,135208,<lshift>,1,345
8171,1,34,0,1,,,137067,<rshift>,1,345
8171,1,35,0,1,,,138926,<rshift>,1,390
8171,1,36,0,1,,,140828,<rshift>,1,419
8171,1,37,0,-1,-1.0,1.0,142758,<lshift>,1,559
8171,1,38,0,-1,0.0,0.0,144830,<lshift>,1,369
8171,1,39,0,1,0.0,0.0,146712,<rshift>,1,376
8171,1,40,0,1,-1.0,-1.0,148599,<rshift>,1,427
8171,1,41,0,1,,,150539,<rshift>,1,425
8171,1,42,0,1,0.0,0.0,152477,<rshift>,1,428
8171,1,43,0,-1,,,154417,<lshift>,1,337
8171,1,44,0,1,,,156268,<rshift>,1,395
8171,1,45,0,1,-1.0,-1.0,158177,<rshift>,1,467
8171,1,46,0,-1,-1.0,1.0,160158,<lshift>,1,485
8171,1,47,0,1,0.0,0.0,162157,<rshift>,1,388
8171,1,48,0,-1,-1.0,1.0,164055,<lshift>,1,417
8171,1,49,0,-1,,,165983,<lshift>,1,428
8171,1,50,0,-1,1.0,-1.0,167924,<lshift>,1,426
8171,1,51,0,-1,,,169863,<lshift>,1,397
8171,1,52,0,1,1.0,1.0,171773,<rshift>,1,507
8171,1,53,0,1,,,173794,<rshift>,1,496
8171,1,54,0,-1,0.0,0.0,175803,<lshift>,1,407
8171,1,55,0,1,1.0,1.0,177722,<rshift>,1,344
8171,1,56,0,1,1.0,1.0,179580,<rshift>,1,407
8171,1,57,0,1,,,181501,<rshift>,1,387
8171,1,58,0,1,,,183401,<rshift>,1,375
8171,1,59,0,-1,-1.0,1.0,185290,<lshift>,1,608
8171,1,60,0,-1,0.0,0.0,187410,<lshift>,1,359
8171,1,61,0,-1,0.0,0.0,189279,<lshift>,1,329
8171,1,62,0,1,1.0,1.0,191118,<rshift>,1,455
8171,1,63,0,1,-1.0,-1.0,193086,<rshift>,1,467
8171,1,64,0,1,0.0,0.0,195066,<rshift>,1,467
8171,1,65,0,-1,1.0,-1.0,197045,<lshift>,1,377
8171,1,66,0,-1,-1.0,1.0,198935,<rshift>,0,322
8171,1,67,0,1,0.0,0.0,200771,<rshift>,1,702
8171,1,68,0,1,-1.0,-1.0,202985,<rshift>,1,556
8171,1,69,0,-1,1.0,-1.0,205056,<lshift>,1,396
8171,1,70,0,-1,-1.0,1.0,206965,<lshift>,1,516
8171,1,71,0,-1,0.0,0.0,208996,<lshift>,1,407
8171,1,72,0,1,0.0,0.0,210914,<rshift>,1,378
8171,1,73,0,-1,0.0,0.0,212803,<lshift>,1,478
8171,1,74,0,-1,0.0,0.0,214792,<lshift>,1,341
8171,1,75,0,-1,1.0,-1.0,216645,<lshift>,1,477
8171,1,76,0,1,0.0,0.0,218635,<rshift>,1,448
8171,1,77,0,1,-1.0,-1.0,220595,<rshift>,1,629
8171,1,78,0,1,1.0,1.0,222737,<rshift>,1,528
8171,1,79,0,-1,,,224779,<lshift>,1,385
8171,1,80,0,-1,0.0,0.0,226678,<lshift>,1,489
8171,1,81,0,1,-1.0,-1.0,228680,<rshift>,1,457
8171,1,82,0,-1,,,230650,<lshift>,1,324
8171,1,83,0,-1,0.0,0.0,232487,<lshift>,1,348
8171,1,84,0,-1,1.0,-1.0,234346,<lshift>,1,591
8171,1,85,0,1,1.0,1.0,236449,<rshift>,1,457
8171,1,86,0,-1,,,238419,<lshift>,1,316
8171,1,87,0,-1,-1.0,1.0,240248,<lshift>,1,507
8171,1,88,0,-1,1.0,-1.0,242268,<lshift>,1,468
8171,1,89,0,1,1.0,1.0,244249,<rshift>,1,708
8171,1,90,0,1,0.0,0.0,246470,<rshift>,1,599
8171,1,91,0,-1,1.0,-1.0,248581,<lshift>,1,366
8171,1,92,0,1,,,250461,<rshift>,1,347
8171,1,93,0,-1,,,252321,<lshift>,1,314
8171,1,94,0,-1,0.0,0.0,254148,<lshift>,1,405
8171,1,95,0,1,1.0,1.0,256068,<rshift>,1,369
8171,1,96,0,-1,1.0,-1.0,257947,<lshift>,1,289
8171,1,97,0,1,1.0,1.0,259746,<rshift>,1,378
8171,1,98,0,-1,1.0,-1.0,261636,<lshift>,1,298
8171,1,99,0,-1,1.0,-1.0,263447,<lshift>,1,377
8171,1,100,0,-1,,,265337,<lshift>,1,416
8171,1,101,0,1,0.0,0.0,267267,<rshift>,1,417
8171,1,102,0,-1,,,269195,<lshift>,1,326
8171,1,103,0,1,0.0,0.0,271034,<rshift>,1,358
8171,1,104,0,-1,-1.0,1.0,272905,<lshift>,1,456
8171,1,105,0,1,-1.0,-1.0,274875,<rshift>,1,538
8171,1,106,0,1,1.0,1.0,276926,<rshift>,1,467
8171,1,107,0,1,0.0,0.0,278906,<rshift>,1,428
8171,1,108,0,1,1.0,1.0,280844,<rshift>,1,408
8171,1,109,0,1,0.0,0.0,282764,<rshift>,1,380
8171,1,110,0,1,1.0,1.0,284654,<rshift>,1,378
8171,1,111,0,-1,-1.0,1.0,286544,<lshift>,1,479
8171,1,112,0,1,-1.0,-1.0,288535,<rshift>,1,499
8171,1,113,0,-1,-1.0,1.0,290548,<lshift>,1,425
8171,1,114,0,-1,0.0,0.0,292486,<lshift>,1,426
8171,1,115,0,-1,0.0,0.0,294424,<lshift>,1,358
8171,1,116,0,1,,,296295,<rshift>,1,569
8171,1,117,0,-1,-1.0,1.0,298380,<lshift>,1,446
8171,1,118,0,-1,-1.0,1.0,300339,<lshift>,1,458
8171,1,119,0,-1,1.0,-1.0,302310,<lshift>,1,378
8171,1,120,0,1,1.0,1.0,304199,<rshift>,1,368
8171,1,121,0,-1,-1.0,1.0,306079,<lshift>,1,407
8171,1,122,0,1,,,307998,<rshift>,1,309
8171,1,123,0,1,0.0,0.0,309820,<lshift>,0,328
8171,1,124,0,-1,,,311659,<lshift>,1,508
8171,1,125,0,1,,,313680,<rshift>,1,385
8171,1,126,0,-1,,,315578,<lshift>,1,467
8171,1,127,0,1,,,317558,<rshift>,1,417
8171,1,128,0,-1,0.0,0.0,319488,<lshift>,1,318
8171,1,129,0,1,1.0,1.0,321319,<rshift>,1,417
8171,1,130,0,-1,0.0,0.0,323249,<lshift>,1,316
8171,1,131,0,1,0.0,0.0,325078,<rshift>,1,378
8171,1,132,0,1,,,326966,<rshift>,1,461
8171,1,133,0,1,0.0,0.0,328937,<rshift>,1,421
8171,1,134,0,-1,0.0,0.0,330867,<lshift>,1,402
8171,1,135,0,1,-1.0,-1.0,332779,<rshift>,1,415
8171,1,136,0,1,1.0,1.0,334707,<rshift>,1,438
8171,1,137,0,1,,,336658,<rshift>,1,428
8171,1,138,0,-1,0.0,0.0,338599,<lshift>,1,369
8171,1,139,0,1,0.0,0.0,340480,<rshift>,1,360
8171,1,140,0,1,,,342351,<rshift>,1,468
8171,1,141,0,-1,-1.0,1.0,344334,<lshift>,1,588
8171,1,142,0,-1,-1.0,1.0,346435,<lshift>,1,486
8171,1,143,0,1,-1.0,-1.0,348434,<rshift>,1,510
8171,1,144,0,1,1.0,1.0,350455,<rshift>,1,369
8171,1,145,0,-1,0.0,0.0,352334,<lshift>,1,350
8171,1,146,0,1,,,354194,<rshift>,1,408
8171,1,147,0,-1,,,356115,<lshift>,1,417
8171,1,148,0,1,-1.0,-1.0,358045,<rshift>,1,489
8171,1,149,0,1,-1.0,-1.0,360047,<rshift>,1,468
8171,1,150,0,1,0.0,0.0,362028,<rshift>,1,396
8171,1,151,0,1,-1.0,-1.0,363936,<rshift>,1,518
8171,1,152,0,1,-1.0,-1.0,365967,<rshift>,1,438
8171,1,153,0,-1,,,367919,<lshift>,1,358
8171,1,154,0,-1,1.0,-1.0,369790,<lshift>,1,438
8171,1,155,0,-1,0.0,0.0,371741,<lshift>,1,392
8171,1,156,0,-1,,,373643,<lshift>,1,461
8171,1,157,0,-1,1.0,-1.0,375615,<lshift>,1,399
8171,1,158,0,-1,-1.0,1.0,377526,<lshift>,1,448
8171,1,159,0,1,1.0,1.0,379487,<rshift>,1,457
8171,1,160,0,1,-1.0,-1.0,381457,<rshift>,1,499
8171,1,161,0,-1,-1.0,1.0,383469,<lshift>,1,541
8171,1,162,0,-1,,,385523,<lshift>,1,569
8171,1,163,0,1,1.0,1.0,387605,<rshift>,1,377
8171,1,164,0,-1,-1.0,1.0,389496,<lshift>,1,406
8171,1,165,0,-1,1.0,-1.0,391415,<lshift>,1,337
8171,1,166,0,1,-1.0,-1.0,393265,<lshift>,0,315
8171,1,167,0,-1,-1.0,1.0,395093,<lshift>,1,560
8171,1,168,0,-1,,,397164,<lshift>,1,399
8047,0,1,1,-1,1.0,-1.0,23523,<timeout>,0,801
8047,0,2,1,1,,,26239,<lshift>,0,633
8047,0,3,1,-1,0.0,0.0,28788,<rshift>,0,368
8047,0,4,1,1,1.0,1.0,31071,<timeout>,0,801
8047,0,5,1,-1,,,33788,<lshift>,1,349
8047,0,6,1,1,0.0,0.0,36054,<rshift>,1,347
8047,0,7,1,-1,-1.0,1.0,38313,<lshift>,1,635
8047,0,8,1,1,-1.0,-1.0,40862,<lshift>,0,765
8047,1,9,0,1,1.0,1.0,48594,<lshift>,0,565
8047,1,10,0,1,0.0,0.0,50672,<lshift>,0,487
8047,1,11,0,1,1.0,1.0,52672,<rshift>,1,505
8047,1,12,0,1,-1.0,-1.0,54691,<rshift>,1,506
8047,1,13,0,1,1.0,1.0,56712,<rshift>,1,577
8047,1,14,0,-1,0.0,0.0,58802,<lshift>,1,344
8047,1,15,0,-1,,,60658,<lshift>,1,466
8047,1,16,0,-1,,,62636,<lshift>,1,448
8047,1,17,0,-1,,,64600,<lshift>,1,371
8047,1,18,0,-1,,,66484,<lshift>,1,405
8047,1,19,0,-1,0.0,0.0,68402,<lshift>,1,344
8047,1,20,0,1,1.0,1.0,70258,<rshift>,1,318
8047,1,21,0,-1,0.0,0.0,72089,<lshift>,1,306
8047,1,22,0,1,-1.0,-1.0,73907,<rshift>,1,454
8047,1,23,0,-1,,,75874,<lshift>,1,484
8047,1,24,0,-1,1.0,-1.0,77872,<rshift>,0,475
8047,1,25,0,1,1.0,1.0,79861,<rshift>,1,313
8047,1,26,0,-1,,,81690,<lshift>,1,312
8047,1,27,0,1,0.0,0.0,83516,<rshift>,1,253
8047,1,28,0,1,,,85281,<rshift>,1,384
8047,1,29,0,1,1.0,1.0,87179,<rshift>,1,282
8047,1,30,0,1,1.0,1.0,88974,<rshift>,1,367
8047,1,31,0,1,-1.0,-1.0,90853,<rshift>,1,396
8047,1,32,0,-1,-1.0,1.0,92762,<lshift>,1,365
8047,1,33,0,-1,,,94640,<lshift>,1,333
8047,1,34,0,1,-1.0,-1.0,96486,<rshift>,1,446
8047,1,35,0,-1,-1.0,1.0,98445,<lshift>,1,415
8047,1,36,0,1,0.0,0.0,100373,<rshift>,1,304
8047,1,37,0,1,1.0,1.0,102188,<rshift>,1,323
8047,1,38,0,1,1.0,1.0,104024,<rshift>,1,314
8047,1,39,0,1,0.0,0.0,105851,<rshift>,1,406
8047,1,40,0,-1,-1.0,1.0,107770,<lshift>,1,444
8047,1,41,0,1,1.0,1.0,109728,<rshift>,1,324
8047,1,42,0,1,1.0,1.0,111565,<rshift>,1,375
8047,1,43,0,-1,1.0,-1.0,113453,<lshift>,1,417
8047,1,44,0,1,,,115380,<rshift>,1,275
8047,1,45,0,1,-1.0,-1.0,117166,<lshift>,0,326
8047,1,46,0,-1,,,119004,<lshift>,1,323
8047,1,47,0,1,,,120840,<rshift>,1,275
8047,1,48,0,1,-1.0,-1.0,122629,<lshift>,0,335
8047,1,49,0,1,-1.0,-1.0,124477,<rshift>,1,423
8047,1,50,0,-1,-1.0,1.0,126414,<lshift>,1,293
8047,1,51,0,1,,,128221,<rshift>,1,285
8047,1,52,0,-1,0.0,0.0,130019,<lshift>,1,417
8047,1,53,0,-1,,,131948,<lshift>,1,455
8047,1,54,0,-1,,,133918,<lshift>,1,365
8047,1,55,0,1,0.0,0.0,135797,<rshift>,1,336
8047,1,56,0,1,,,137646,<rshift>,1,362
8047,1,57,0,1,0.0,0.0,139521,<rshift>,1,306
8047,1,58,0,1,-1.0,-1.0,141338,<lshift>,0,254
8047,1,59,0,1,0.0,0.0,143104,<rshift>,1,397
8047,1,60,0,-1,0.0,0.0,145012,<lshift>,1,275
8047,1,61,0,-1,-1.0,1.0,146799,<lshift>,1,477
8047,1,62,0,1,0.0,0.0,148789,<rshift>,1,335
8047,1,63,0,-1,0.0,0.0,150635,<lshift>,1,285
8047,1,64,0,1,,,152432,<rshift>,1,445
8047,1,65,0,1,,,154391,<rshift>,1,414
8047,1,66,0,1,0.0,0.0,156319,<rshift>,1,375
8047,1,67,0,1,-1.0,-1.0,158206,<rshift>,1,507
8047,1,68,0,1,1.0,1.0,160227,<rshift>,1,355
8047,1,69,0,1,0.0,0.0,162095,<rshift>,1,364
8047,1,70,0,1,0.0,0.0,163972,<rshift>,1,324
8047,1,71,0,1,-1.0,-1.0,165808,<rshift>,1,425
8047,1,72,0,1,1.0,1.0,167746,<rshift>,1,366
8047,1,73,0,1,0.0,0.0,169624,<rshift>,1,314
8047,1,74,0,-1,1.0,-1.0,171450,<lshift>,1,374
8047,1,75,0,1,0.0,0.0,173338,<rshift>,1,356
8047,1,76,0,1,0.0,0.0,175206,<rshift>,1,357
8047,1,77,0,-1,1.0,-1.0,177075,<lshift>,1,404
8047,1,78,0,1,0.0,0.0,178993,<rshift>,1,406
8047,1,79,0,1,,,180911,<rshift>,1,365
8047,1,80,0,1,,,182790,<rshift>,1,384
8047,1,81,0,1,-1.0,-1.0,184689,<lshift>,0,262
8047,1,82,0,-1,0.0,0.0,186465,<lshift>,1,569
8047,1,83,0,1,,,188546,<rshift>,1,424
8047,1,84,0,-1,0.0,0.0,190485,<lshift>,1,519
8047,1,85,0,-1,1.0,-1.0,192514,<lshift>,1,661
8047,1,86,0,-1,1.0,-1.0,194687,<lshift>,1,415
8047,1,87,0,-1,1.0,-1.0,196616,<lshift>,1,357
8047,1,88,0,-1,0.0,0.0,198487,<lshift>,1,364
8047,1,89,0,-1,-1.0,1.0,200364,<lshift>,1,456
8047,1,90,0,-1,0.0,0.0,202334,<lshift>,1,354
8047,1,91,0,-1,-1.0,1.0,204200,<lshift>,1,405
8047,1,92,0,-1,-1.0,1.0,206119,<lshift>,1,394
8047,1,93,0,-1,1.0,-1.0,208027,<lshift>,1,374
8047,1,94,0,-1,,,209915,<lshift>,1,356
8047,1,95,0,1,0.0,0.0,211784,<rshift>,1,357
8047,1,96,0,-1,1.0,-1.0,213653,<lshift>,1,436
8047,1,97,0,-1,,,215602,<rshift>,0,560
8047,1,98,0,1,,,217672,<rshift>,1,568
8047,1,99,0,-1,,,219753,<lshift>,1,437
8047,1,100,0,-1,0.0,0.0,221704,<lshift>,1,335
8047,1,101,0,1,1.0,1.0,223551,<rshift>,1,446
8047,1,102,0,-1,1.0,-1.0,225511,<lshift>,1,485
8047,1,103,0,-1,-1.0,1.0,227510,<lshift>,1,516
8047,1,104,0,-1,1.0,-1.0,229540,<lshift>,1,335
8047,1,105,0,-1,-1.0,1.0,231389,<lshift>,1,384
8047,1,106,0,-1,0.0,0.0,233287,<lshift>,1,315
8047,1,107,0,-1,-1.0,1.0,235114,<lshift>,1,353
8047,1,108,0,-1,-1.0,1.0,236982,<lshift>,1,355
8047,1,109,0,1,-1.0,-1.0,238851,<rshift>,1,738
8047,1,110,0,1,1.0,1.0,241103,<rshift>,1,396
8047,1,111,0,-1,0.0,0.0,243011,<lshift>,1,501
8047,1,112,0,-1,,,245023,<lshift>,1,516
8047,1,113,0,1,,,247053,<rshift>,1,477
8047,1,114,0,-1,-1.0,1.0,249043,<lshift>,1,698
8047,1,115,0,1,-1.0,-1.0,251255,<rshift>,1,548
8047,1,116,0,1,0.0,0.0,253317,<rshift>,1,457
8047,1,117,0,-1,,,255286,<lshift>,1,334
8047,1,118,0,-1,,,257134,<lshift>,1,396
8047,1,119,0,1,-1.0,-1.0,259044,<rshift>,1,497
8047,1,120,0,1,-1.0,-1.0,261056,<rshift>,1,557
8047,1,121,0,1,,,263127,<rshift>,1,433
8047,1,122,0,-1,0.0,0.0,265074,<rshift>,0,345
8047,1,123,0,1,-1.0,-1.0,266932,<rshift>,1,426
8047,1,124,0,1,,,268871,<rshift>,1,436
8047,1,125,0,-1,0.0,0.0,270821,<lshift>,1,469
8047,1,126,0,-1,-1.0,1.0,272801,<lshift>,1,507
8047,1,127,0,-1,1.0,-1.0,274822,<lshift>,1,456
8047,1,128,0,1,,,276792,<rshift>,1,374
8047,1,129,0,-1,0.0,0.0,278679,<lshift>,1,457
8047,1,130,0,-1,1.0,-1.0,280648,<lshift>,1,435
8047,1,131,0,-1,1.0,-1.0,282598,<lshift>,1,405
8047,1,132,0,-1,-1.0,1.0,284517,<lshift>,1,476
8047,1,133,0,1,,,286507,<rshift>,1,526
8047,1,134,0,-1,-1.0,1.0,288548,<lshift>,1,475
8047,1,135,0,1,1.0,1.0,290537,<rshift>,1,536
8047,1,136,0,-1,0.0,0.0,292587,<timeout>,0,801
8047,1,137,0,1,-1.0,-1.0,294899,<rshift>,1,441
8047,1,138,0,-1,-1.0,1.0,296852,<timeout>,0,801
8047,1,139,0,1,,,299166,<rshift>,1,409
8047,1,140,0,1,-1.0,-1.0,301089,<lshift>,0,335
8047,1,141,0,-1,0.0,0.0,302937,<lshift>,1,517
8047,1,142,0,1,0.0,0.0,304966,<rshift>,1,307
8047,1,143,0,-1,-1.0,1.0,306786,<lshift>,1,486
8047,1,144,0,-1,,,308785,<lshift>,1,354
8047,1,145,0,1,,,310653,<rshift>,1,353
8047,1,146,0,1,-1.0,-1.0,312522,<rshift>,1,384
8047,1,147,0,-1,1.0,-1.0,314420,<lshift>,1,385
8047,1,148,0,-1,-1.0,1.0,316319,<lshift>,1,456
8047,1,149,0,1,,,318289,<rshift>,1,315
8047,1,150,0,1,0.0,0.0,320115,<rshift>,1,348
8047,1,151,0,1,1.0,1.0,321974,<rshift>,1,387
8047,1,152,0,-1,,,323874,<lshift>,1,465
8047,1,153,0,-1,0.0,0.0,325853,<lshift>,1,315
8047,1,154,0,-1,1.0,-1.0,327680,<lshift>,1,558
8047,1,155,0,1,-1.0,-1.0,329751,<rshift>,1,497
8047,1,156,0,1,1.0,1.0,331762,<rshift>,1,365
8047,1,157,0,-1,-1.0,1.0,333640,<lshift>,1,436
8047,1,158,0,-1,0.0,0.0,335590,<lshift>,1,315
8047,1,159,0,-1,,,337417,<lshift>,1,297
8047,1,160,0,1,1.0,1.0,339229,<rshift>,1,405
8047,1,161,0,1,,,341149,<rshift>,1,475
8047,1,162,0,-1,,,343138,<lshift>,1,394
8047,1,163,0,-1,1.0,-1.0,345045,<lshift>,1,387
8047,1,164,0,1,1.0,1.0,346945,<rshift>,1,487
8047,1,165,0,1,0.0,0.0,348944,<rshift>,1,337
8047,1,166,0,-1,1.0,-1.0,350792,<lshift>,1,366
8047,1,167,0,-1,1.0,-1.0,352671,<lshift>,1,436
8047,1,168,0,-1,1.0,-1.0,354621,<lshift>,1,447
8060,0,1,1,1,-1.0,-1.0,49816,<timeout>,0,801
8060,0,2,1,1,,,52598,<timeout>,0,801
8060,0,3,1,1,1.0,1.0,55346,<timeout>,0,801
8060,0,4,1,-1,,,58096,<timeout>,0,801
8060,0,5,1,-1,-1.0,1.0,60846,<timeout>,0,801
8060,0,6,1,1,0.0,0.0,63597,<timeout>,0,801
8060,0,7,1,-1,0.0,0.0,66346,<timeout>,0,801
8060,0,8,1,-1,1.0,-1.0,69093,<timeout>,0,801
8060,1,9,0,1,,,86364,<rshift>,1,493
8060,1,10,0,1,0.0,0.0,88397,<rshift>,1,480
8060,1,11,0,1,-1.0,-1.0,90416,<lshift>,0,425
8060,1,12,0,-1,1.0,-1.0,92382,<lshift>,1,468
8060,1,13,0,1,0.0,0.0,94388,<rshift>,1,389
8060,1,14,0,1,,,96313,<rshift>,1,501
8060,1,15,0,-1,-1.0,1.0,98352,<lshift>,1,500
8060,1,16,0,-1,-1.0,1.0,100390,<lshift>,1,478
8060,1,17,0,-1,-1.0,1.0,102406,<lshift>,1,407
8060,1,18,0,1,1.0,1.0,104352,<rshift>,1,448
8060,1,19,0,-1,,,106339,<lshift>,1,447
8060,1,20,0,1,-1.0,-1.0,108326,<rshift>,1,477
8060,1,21,0,1,,,110343,<rshift>,1,457
8060,1,22,0,-1,,,112341,<lshift>,1,417
8060,1,23,0,1,0.0,0.0,114298,<rshift>,1,378
8060,1,24,0,-1,-1.0,1.0,116215,<lshift>,1,376
8060,1,25,0,-1,-1.0,1.0,118131,<lshift>,1,499
8060,1,26,0,1,-1.0,-1.0,120168,<rshift>,1,470
8060,1,27,0,1,0.0,0.0,122175,<rshift>,1,471
8060,1,28,0,1,1.0,1.0,124181,<rshift>,1,520
8060,1,29,0,-1,0.0,0.0,126240,<lshift>,1,399
8060,1,30,0,-1,0.0,0.0,128176,<lshift>,1,369
8060,1,31,0,-1,,,130082,<lshift>,1,447
8060,1,32,0,1,1.0,1.0,132069,<rshift>,1,419
8060,1,33,0,1,-1.0,-1.0,134028,<rshift>,1,439
8060,1,34,0,1,0.0,0.0,136008,<rshift>,1,388
8060,1,35,0,-1,0.0,0.0,137934,<lshift>,1,389
8060,1,36,0,1,-1.0,-1.0,139862,<rshift>,1,478
8060,1,37,0,1,1.0,1.0,141881,<rshift>,1,427
8060,1,38,0,1,0.0,0.0,143848,<rshift>,1,397
8060,1,39,0,-1,-1.0,1.0,145782,<lshift>,1,633
8060,1,40,0,-1,0.0,0.0,147954,<lshift>,1,371
8060,1,41,0,1,,,149861,<rshift>,1,438
8060,1,42,0,1,,,151837,<rshift>,1,401
8060,1,43,0,-1,0.0,0.0,153777,<lshift>,1,368
8060,1,44,0,-1,0.0,0.0,155683,<lshift>,1,390
8060,1,45,0,-1,,,157611,<lshift>,1,447
8060,1,46,0,-1,1.0,-1.0,159598,<lshift>,1,427
8060,1,47,0,1,,,161565,<rshift>,1,448
8060,1,48,0,1,0.0,0.0,163553,<rshift>,1,397
8060,1,49,0,1,1.0,1.0,165490,<rshift>,1,466
8060,1,50,0,-1,-1.0,1.0,167496,<lshift>,1,518
8060,1,51,0,1,-1.0,-1.0,169554,<rshift>,1,509
8060,1,52,0,1,1.0,1.0,171602,<rshift>,1,428
8060,1,53,0,-1,1.0,-1.0,173568,<lshift>,1,439
8060,1,54,0,-1,0.0,0.0,175546,<lshift>,1,400
8060,1,55,0,1,0.0,0.0,177483,<rshift>,1,359
8060,1,56,0,-1,,,179379,<lshift>,1,418
8060,1,57,0,1,,,181337,<rshift>,1,497
8060,1,58,0,1,1.0,1.0,183374,<rshift>,1,447
8060,1,59,0,1,-1.0,-1.0,185361,<rshift>,1,488
8060,1,60,0,-1,,,187389,<lshift>,1,437
8060,1,61,0,1,0.0,0.0,189367,<rshift>,1,334
8060,1,62,0,1,1.0,1.0,191240,<rshift>,1,82
8060,1,63,0,-1,-1.0,1.0,192862,<lshift>,1,487
8060,1,64,0,1,0.0,0.0,194890,<rshift>,1,408
8060,1,65,0,-1,1.0,-1.0,196836,<lshift>,1,369
8060,1,66,0,1,-1.0,-1.0,198742,<rshift>,1,461
8060,1,67,0,1,-1.0,-1.0,200741,<rshift>,1,479
8060,1,68,0,-1,-1.0,1.0,202758,<lshift>,1,479
8060,1,69,0,-1,0.0,0.0,204775,<lshift>,1,441
8060,1,70,0,1,,,206753,<rshift>,1,418
8060,1,71,0,1,,,208711,<rshift>,1,427
8060,1,72,0,-1,,,210678,<lshift>,1,407
8060,1,73,0,-1,1.0,-1.0,212625,<lshift>,1,426
8060,1,74,0,1,0.0,0.0,214591,<rshift>,1,377
8060,1,75,0,1,-1.0,-1.0,216507,<rshift>,1,539
8060,1,76,0,-1,-1.0,1.0,218586,<lshift>,1,345
8060,1,77,0,1,,,220471,<rshift>,1,468
8060,1,78,0,1,0.0,0.0,222478,<rshift>,1,442
8060,1,79,0,-1,0.0,0.0,224456,<lshift>,1,412
8060,1,80,0,1,,,226404,<rshift>,1,509
8060,1,81,0,1,1.0,1.0,228453,<rshift>,1,519
8060,1,82,0,-1,-1.0,1.0,230510,<lshift>,1,681
8060,1,83,0,-1,,,232729,<lshift>,1,531
8060,1,84,0,1,1.0,1.0,234799,<rshift>,1,385
8060,1,85,0,-1,0.0,0.0,236724,<lshift>,1,439
8060,1,86,0,-1,-1.0,1.0,238701,<rshift>,0,387
8060,1,87,0,1,1.0,1.0,240629,<rshift>,1,498
8060,1,88,0,-1,,,242667,<lshift>,1,388
8060,1,89,0,1,0.0,0.0,244595,<rshift>,1,366
8060,1,90,0,1,1.0,1.0,246500,<rshift>,1,438
8060,1,91,0,-1,0.0,0.0,248477,<lshift>,1,441
8060,1,92,0,1,-1.0,-1.0,250454,<rshift>,1,560
8060,1,93,0,-1,0.0,0.0,252553,<lshift>,1,390
8060,1,94,0,1,0.0,0.0,254480,<rshift>,1,397
8060,1,95,0,-1,1.0,-1.0,256415,<lshift>,1,407
8060,1,96,0,-1,1.0,-1.0,258362,<lshift>,1,549
8060,1,97,0,1,,,260450,<rshift>,1,407
8060,1,98,0,-1,1.0,-1.0,262397,<lshift>,1,448
8060,1,99,0,1,-1.0,-1.0,264385,<rshift>,1,467
8060,1,100,0,1,,,266394,<rshift>,1,417
8060,1,101,0,-1,-1.0,1.0,268351,<lshift>,1,480
8060,1,102,0,-1,0.0,0.0,270371,<lshift>,1,510
8060,1,103,0,-1,0.0,0.0,272420,<lshift>,1,490
8060,1,104,0,-1,1.0,-1.0,274447,<lshift>,1,390
8060,1,105,0,-1,-1.0,1.0,276375,<lshift>,1,479
8060,1,106,0,1,1.0,1.0,278393,<rshift>,1,488
8060,1,107,0,-1,1.0,-1.0,280421,<lshift>,1,355
8060,1,108,0,-1,-1.0,1.0,282316,<lshift>,1,530
8060,1,109,0,1,-1.0,-1.0,284386,<rshift>,1,509
8060,1,110,0,-1,1.0,-1.0,286434,<lshift>,1,437
8060,1,111,0,-1,-1.0,1.0,288411,<lshift>,1,467
8060,1,112,0,-1,1.0,-1.0,290418,<lshift>,1,427
8060,1,113,0,1,0.0,0.0,292386,<rshift>,1,378
8060,1,114,0,1,-1.0,-1.0,294303,<rshift>,1,518
8060,1,115,0,-1,0.0,0.0,296361,<lshift>,1,430
8060,1,116,0,1,-1.0,-1.0,298329,<rshift>,1,488
8060,1,117,0,1,,,300356,<rshift>,1,418
8060,1,118,0,-1,-1.0,1.0,302313,<lshift>,1,559
8060,1,119,0,-1,,,304410,<lshift>,1,388
8060,1,120,0,1,0.0,0.0,306337,<rshift>,1,440
8060,1,121,0,1,,,308314,<rshift>,1,488
8060,1,122,0,1,-1.0,-1.0,310342,<rshift>,1,477
8060,1,123,0,1,1.0,1.0,312359,<rshift>,1,377
8060,1,124,0,-1,1.0,-1.0,314276,<lshift>,1,640
8060,1,125,0,-1,,,316456,<lshift>,1,366
8060,1,126,0,1,-1.0,-1.0,318363,<rshift>,1,487
8060,1,127,0,-1,1.0,-1.0,320391,<lshift>,1,417
8060,1,128,0,1,1.0,1.0,322348,<rshift>,1,397
8060,1,129,0,-1,0.0,0.0,324287,<lshift>,1,489
8060,1,130,0,-1,1.0,-1.0,326313,<lshift>,1,509
8060,1,131,0,1,0.0,0.0,328361,<rshift>,1,358
8060,1,132,0,1,,,330256,<rshift>,1,469
8060,1,133,0,1,,,332264,<rshift>,1,388
8060,1,134,0,-1,,,334191,<lshift>,1,388
8060,1,135,0,-1,,,336119,<lshift>,1,418
8060,1,136,0,1,1.0,1.0,338077,<rshift>,1,427
8060,1,137,0,1,,,340044,<rshift>,1,418
8060,1,138,0,1,-1.0,-1.0,342002,<rshift>,1,498
8060,1,139,0,-1,,,344041,<lshift>,1,396
8060,1,140,0,1,-1.0,-1.0,345977,<rshift>,1,313
8060,1,141,0,-1,1.0,-1.0,347831,<lshift>,1,337
8060,1,142,0,1,0.0,0.0,349707,<rshift>,1,347
8060,1,143,0,-1,,,351593,<lshift>,1,438
8060,1,144,0,1,1.0,1.0,353569,<rshift>,1,408
8060,1,145,0,-1,-1.0,1.0,355515,<lshift>,1,392
8060,1,146,0,-1,,,357445,<lshift>,1,488
8060,1,147,0,-1,,,359472,<lshift>,1,409
8060,1,148,0,1,,,361420,<rshift>,1,448
8060,1,149,0,-1,0.0,0.0,363408,<lshift>,1,419
8060,1,150,0,1,1.0,1.0,365365,<rshift>,1,417
8060,1,151,0,-1,1.0,-1.0,367322,<lshift>,1,537
8060,1,152,0,1,1.0,1.0,369399,<rshift>,1,356
8060,1,153,0,1,,,371296,<rshift>,1,456
8060,1,154,0,1,-1.0,-1.0,373292,<rshift>,1,447
8060,1,155,0,-1,0.0,0.0,375279,<lshift>,1,368
8060,1,156,0,-1,0.0,0.0,377185,<lshift>,1,440
8060,1,157,0,-1,1.0,-1.0,379162,<lshift>,1,430
8060,1,158,0,-1,,,381130,<lshift>,1,387
8060,1,159,0,1,0.0,0.0,383057,<rshift>,1,411
8060,1,160,0,1,0.0,0.0,385005,<rshift>,1,409
8060,1,161,0,-1,0.0,0.0,386952,<lshift>,1,338
8060,1,162,0,-1,,,388827,<lshift>,1,427
8060,1,163,0,-1,1.0,-1.0,390794,<lshift>,1,386
8060,1,164,0,-1,-1.0,1.0,392721,<lshift>,1,426
8060,1,165,0,1,1.0,1.0,394688,<rshift>,1,386
8060,1,166,0,-1,-1.0,1.0,396614,<lshift>,1,386
8060,1,167,0,-1,,,398540,<lshift>,1,406
8060,1,168,0,-1,1.0,-1.0,400486,<lshift>,1,346
8186,0,1,1,-1,0.0,0.0,41994,<timeout>,0,802
8186,0,2,1,1,1.0,1.0,44777,<timeout>,0,801
8186,0,3,1,-1,-1.0,1.0,47526,<timeout>,0,801
8186,0,4,1,1,0.0,0.0,50276,<timeout>,0,801
8186,0,5,1,-1,,,53026,<timeout>,0,801
8186,0,6,1,1,,,55776,<timeout>,0,802
8186,0,7,1,1,-1.0,-1.0,58525,<timeout>,0,801
8186,0,8,1,-1,1.0,-1.0,61272,<lshift>,1,694
8186,1,9,0,1,-1.0,-1.0,73417,<rshift>,1,543
8186,1,10,0,-1,0.0,0.0,75501,<lshift>,1,523
8186,1,11,0,1,0.0,0.0,77563,<rshift>,1,411
8186,1,12,0,1,0.0,0.0,79513,<rshift>,1,402
8186,1,13,0,-1,,,81454,<lshift>,1,573
8186,1,14,0,1,-1.0,-1.0,83564,<rshift>,1,544
8186,1,15,0,1,1.0,1.0,85645,<rshift>,1,433
8186,1,16,0,-1,-1.0,1.0,87617,<lshift>,1,472
8186,1,17,0,1,1.0,1.0,89628,<rshift>,1,401
8186,1,18,0,-1,-1.0,1.0,91568,<lshift>,1,431
8186,1,19,0,-1,1.0,-1.0,93539,<lshift>,1,431
8186,1,20,0,1,,,95510,<rshift>,1,380
8186,1,21,0,1,0.0,0.0,97430,<rshift>,1,392
8186,1,22,0,-1,1.0,-1.0,99361,<lshift>,1,382
8186,1,23,0,1,-1.0,-1.0,101283,<rshift>,1,461
8186,1,24,0,-1,0.0,0.0,103284,<lshift>,1,391
8186,1,25,0,1,,,105213,<rshift>,1,382
8186,1,26,0,-1,-1.0,1.0,107132,<lshift>,1,516
8186,1,27,0,-1,1.0,-1.0,109186,<lshift>,1,413
8186,1,28,0,1,0.0,0.0,111137,<rshift>,1,394
8186,1,29,0,1,,,113068,<rshift>,1,391
8186,1,30,0,-1,,,114998,<lshift>,1,431
8186,1,31,0,-1,0.0,0.0,116968,<lshift>,1,403
8186,1,32,0,1,1.0,1.0,118909,<rshift>,1,441
8186,1,33,0,-1,-1.0,1.0,120890,<lshift>,1,420
8186,1,34,0,1,-1.0,-1.0,122851,<rshift>,1,441
8186,1,35,0,-1,-1.0,1.0,124832,<lshift>,1,430
8186,1,36,0,1,,,126802,<rshift>,1,371
8186,1,37,0,1,,,128711,<rshift>,1,392
8186,1,38,0,-1,0.0,0.0,130641,<lshift>,1,353
8186,1,39,0,-1,1.0,-1.0,132530,<lshift>,1,423
8186,1,40,0,1,1.0,1.0,134491,<rshift>,1,380
8186,1,41,0,1,-1.0,-1.0,136410,<rshift>,1,410
8186,1,42,0,-1,-1.0,1.0,138360,<rshift>,0,484
8186,1,43,0,1,,,140383,<rshift>,1,400
8186,1,44,0,1,,,142323,<rshift>,1,389
8186,1,45,0,-1,0.0,0.0,144252,<lshift>,1,351
8186,1,46,0,-1,-1.0,1.0,146143,<lshift>,1,411
8186,1,47,0,1,-1.0,-1.0,148094,<rshift>,1,510
8186,1,48,0,-1,1.0,-1.0,150144,<lshift>,1,391
8186,1,49,0,1,-1.0,-1.0,152073,<rshift>,1,433
8186,1,50,0,-1,0.0,0.0,154043,<lshift>,1,345
8186,1,51,0,-1,,,155925,<lshift>,1,452
8186,1,52,0,1,-1.0,-1.0,157916,<rshift>,1,340
8186,1,53,0,1,0.0,0.0,159794,<rshift>,1,373
8186,1,54,0,-1,0.0,0.0,161704,<lshift>,1,373
8186,1,55,0,-1,,,163615,<lshift>,1,409
8186,1,56,0,-1,,,165564,<lshift>,1,350
8186,1,57,0,-1,,,167454,<lshift>,1,369
8186,1,58,0,1,1.0,1.0,169364,<rshift>,1,370
8186,1,59,0,1,0.0,0.0,171274,<rshift>,1,361
8186,1,60,0,1,1.0,1.0,173174,<rshift>,1,390
8186,1,61,0,-1,0.0,0.0,175103,<lshift>,1,355
8186,1,62,0,-1,,,176993,<lshift>,1,394
8186,1,63,0,1,0.0,0.0,178926,<rshift>,1,374
8186,1,64,0,-1,1.0,-1.0,180837,<lshift>,1,433
8186,1,65,0,-1,-1.0,1.0,182807,<lshift>,1,433
8186,1,66,0,-1,1.0,-1.0,184780,<lshift>,1,440
8186,1,67,0,-1,,,186760,<lshift>,1,390
8186,1,68,0,1,-1.0,-1.0,188690,<rshift>,1,491
8186,1,69,0,1,0.0,0.0,190721,<rshift>,1,383
8186,1,70,0,1,1.0,1.0,192642,<rshift>,1,398
8186,1,71,0,-1,,,194581,<lshift>,1,421
8186,1,72,0,-1,,,196542,<lshift>,1,391
8186,1,73,0,1,0.0,0.0,198471,<rshift>,1,344
8186,1,74,0,-1,,,200351,<lshift>,1,373
8186,1,75,0,1,-1.0,-1.0,202261,<rshift>,1,444
8186,1,76,0,1,,,204243,<rshift>,1,411
8186,1,77,0,-1,,,206192,<lshift>,1,381
8186,1,78,0,1,,,208112,<rshift>,1,350
8186,1,79,0,1,0.0,0.0,210002,<rshift>,1,362
8186,1,80,0,-1,0.0,0.0,211901,<lshift>,1,342
8186,1,81,0,1,-1.0,-1.0,213781,<rshift>,1,381
8186,1,82,0,1,1.0,1.0,215703,<rshift>,1,400
8186,1,83,0,-1,0.0,0.0,217643,<lshift>,1,372
8186,1,84,0,-1,-1.0,1.0,219554,<lshift>,1,462
8186,1,85,0,1,1.0,1.0,221555,<rshift>,1,383
8186,1,86,0,-1,0.0,0.0,223476,<lshift>,1,405
8186,1,87,0,-1,1.0,-1.0,225417,<lshift>,1,412
8186,1,88,0,-1,,,227367,<lshift>,1,362
8186,1,89,0,-1,-1.0,1.0,229268,<lshift>,1,461
8186,1,90,0,-1,-1.0,1.0,231269,<lshift>,1,451
8186,1,91,0,-1,-1.0,1.0,233260,<lshift>,1,390
8186,1,92,0,1,1.0,1.0,235190,<rshift>,1,522
8186,1,93,0,1,,,237252,<rshift>,1,451
8186,1,94,0,1,,,239244,<rshift>,1,410
8186,1,95,0,1,-1.0,-1.0,241194,<rshift>,1,612
8186,1,96,0,1,,,243347,<rshift>,1,400
8186,1,97,0,-1,0.0,0.0,245286,<lshift>,1,382
8186,1,98,0,1,-1.0,-1.0,247204,<rshift>,1,424
8186,1,99,0,-1,,,249166,<lshift>,1,384
8186,1,100,0,1,0.0,0.0,251088,<rshift>,1,373
8186,1,101,0,1,-1.0,-1.0,252999,<rshift>,1,521
8186,1,102,0,-1,,,255060,<lshift>,1,411
8186,1,103,0,1,0.0,0.0,257011,<rshift>,1,415
8186,1,104,0,1,1.0,1.0,258963,<rshift>,1,400
8186,1,105,0,1,0.0,0.0,260902,<rshift>,1,373
8186,1,106,0,-1,-1.0,1.0,262815,<lshift>,1,441
8186,1,107,0,-1,-1.0,1.0,264796,<lshift>,1,442
8186,1,108,0,-1,1.0,-1.0,266778,<lshift>,1,391
8186,1,109,0,1,,,268708,<rshift>,1,432
8186,1,110,0,-1,,,270678,<lshift>,1,444
8186,1,111,0,1,0.0,0.0,272660,<rshift>,1,363
8186,1,112,0,-1,-1.0,1.0,274560,<lshift>,1,443
8186,1,113,0,-1,0.0,0.0,276542,<lshift>,1,372
8186,1,114,0,1,1.0,1.0,278450,<rshift>,1,383
8186,1,115,0,1,1.0,1.0,280372,<rshift>,1,412
8186,1,116,0,-1,0.0,0.0,282322,<lshift>,1,421
8186,1,117,0,1,1.0,1.0,284282,<rshift>,1,411
8186,1,118,0,1,-1.0,-1.0,286234,<rshift>,1,444
8186,1,119,0,-1,,,288218,<lshift>,1,482
8186,1,120,0,-1,0.0,0.0,290241,<lshift>,1,443
8186,1,121,0,1,0.0,0.0,292222,<lshift>,0,465
8186,1,122,0,-1,,,294224,<lshift>,1,454
8186,1,123,0,-1,1.0,-1.0,296216,<lshift>,1,422
8186,1,124,0,-1,1.0,-1.0,298177,<lshift>,1,403
8186,1,125,0,1,,,300118,<rshift>,1,432
8186,1,126,0,1,0.0,0.0,302089,<rshift>,1,413
8186,1,127,0,1,1.0,1.0,304040,<rshift>,1,390
8186,1,128,0,1,,,305970,<rshift>,1,401
8186,1,129,0,1,-1.0,-1.0,307911,<rshift>,1,431
8186,1,130,0,-1,1.0,-1.0,309883,<lshift>,1,422
8186,1,131,0,1,,,311845,<rshift>,1,401
8186,1,132,0,1,1.0,1.0,313787,<rshift>,1,370
8186,1,133,0,-1,0.0,0.0,315696,<lshift>,1,354
8186,1,134,0,1,,,317587,<rshift>,1,422
8186,1,135,0,-1,0.0,0.0,319547,<lshift>,1,435
8186,1,136,0,-1,1.0,-1.0,321519,<lshift>,1,434
8186,1,137,0,-1,0.0,0.0,323491,<lshift>,1,395
8186,1,138,0,-1,1.0,-1.0,325423,<lshift>,1,361
8186,1,139,0,-1,-1.0,1.0,327323,<lshift>,1,614
8186,1,140,0,-1,0.0,0.0,329476,<lshift>,1,394
8186,1,141,0,-1,1.0,-1.0,331407,<lshift>,1,433
8186,1,142,0,-1,1.0,-1.0,333381,<lshift>,1,379
8186,1,143,0,-1,1.0,-1.0,335301,<lshift>,1,380
8186,1,144,0,1,1.0,1.0,337221,<rshift>,1,442
8186,1,145,0,-1,1.0,-1.0,339202,<lshift>,1,382
8186,1,146,0,1,0.0,0.0,341123,<rshift>,1,384
8186,1,147,0,1,-1.0,-1.0,343044,<rshift>,1,513
8186,1,148,0,1,,,345096,<rshift>,1,503
8186,1,149,0,-1,1.0,-1.0,347138,<lshift>,1,502
8186,1,150,0,1,-1.0,-1.0,349179,<timeout>,0,801
8186,1,151,0,1,1.0,1.0,351519,<rshift>,1,436
8186,1,152,0,1,-1.0,-1.0,353495,<rshift>,1,452
8186,1,153,0,1,1.0,1.0,355488,<rshift>,1,391
8186,1,154,0,1,,,357419,<rshift>,1,411
8186,1,155,0,-1,0.0,0.0,359371,<lshift>,1,433
8186,1,156,0,1,1.0,1.0,361344,<rshift>,1,443
8186,1,157,0,-1,-1.0,1.0,363325,<lshift>,1,434
8186,1,158,0,1,,,365297,<rshift>,1,412
8186,1,159,0,-1,,,367249,<lshift>,1,403
8186,1,160,0,1,0.0,0.0,369190,<rshift>,1,344
8186,1,161,0,1,0.0,0.0,371070,<rshift>,1,404
8186,1,162,0,-1,-1.0,1.0,373011,<lshift>,1,544
8186,1,163,0,-1,,,375095,<lshift>,1,410
8186,1,164,0,1,0.0,0.0,377045,<rshift>,1,393
8186,1,165,0,-1,-1.0,1.0,378978,<lshift>,1,521
8186,1,166,0,1,-1.0,-1.0,381041,<rshift>,1,441
8186,1,167,0,-1,1.0,-1.0,383023,<lshift>,1,421
8186,1,168,0,-1,-1.0,1.0,384985,<lshift>,1,513
8109,0,1,1,-1,,,35563,<timeout>,0,801
8109,0,2,1,1,0.0,0.0,38362,<rshift>,1,467
8109,0,3,1,-1,0.0,0.0,40774,<lshift>,1,535
8109,0,4,1,1,,,43254,<rshift>,1,601
8109,0,5,1,-1,1.0,-1.0,45803,<lshift>,1,369
8109,0,6,1,-1,-1.0,1.0,48121,<rshift>,0,397
8109,0,7,1,1,-1.0,-1.0,50468,<rshift>,1,571
8109,0,8,1,1,1.0,1.0,52988,<rshift>,1,500
8109,1,9,0,-1,0.0,0.0,60375,<lshift>,1,520
8109,1,10,0,1,0.0,0.0,62431,<rshift>,1,375
8109,1,11,0,1,0.0,0.0,64342,<rshift>,1,475
8109,1,12,0,-1,-1.0,1.0,66357,<lshift>,1,565
8109,1,13,0,-1,-1.0,1.0,68462,<lshift>,1,584
8109,1,14,0,1,,,70586,<rshift>,1,372
8109,1,15,0,-1,,,72499,<lshift>,1,636
8109,1,16,0,1,1.0,1.0,74675,<rshift>,1,321
8109,1,17,0,1,1.0,1.0,76536,<lshift>,0,261
8109,1,18,0,-1,0.0,0.0,78335,<lshift>,1,436
8109,1,19,0,-1,-1.0,1.0,80307,<rshift>,0,384
8109,1,20,0,1,-1.0,-1.0,82229,<rshift>,1,536
8109,1,21,0,1,,,84303,<rshift>,1,447
8109,1,22,0,1,,,86288,<rshift>,1,423
8109,1,23,0,-1,0.0,0.0,88249,<lshift>,1,364
8109,1,24,0,1,0.0,0.0,90152,<rshift>,1,485
8109,1,25,0,-1,,,92174,<lshift>,1,362
8109,1,26,0,1,-1.0,-1.0,94077,<rshift>,1,483
8109,1,27,0,1,0.0,0.0,96101,<rshift>,1,415
8109,1,28,0,-1,-1.0,1.0,98055,<lshift>,1,535
8109,1,29,0,1,0.0,0.0,100130,<rshift>,1,354
8109,1,30,0,1,-1.0,-1.0,102021,<lshift>,0,355
8109,1,31,0,-1,-1.0,1.0,103914,<lshift>,1,484
8109,1,32,0,1,1.0,1.0,105936,<rshift>,1,363
8109,1,33,0,-1,-1.0,1.0,107837,<lshift>,1,485
8109,1,34,0,-1,,,109860,<rshift>,0,312
8109,1,35,0,-1,,,111712,<lshift>,1,493
8109,1,36,0,1,0.0,0.0,113744,<rshift>,1,423
8109,1,37,0,-1,1.0,-1.0,115706,<lshift>,1,363
8109,1,38,0,-1,1.0,-1.0,117608,<lshift>,1,473
8109,1,39,0,-1,0.0,0.0,119622,<lshift>,1,554
8109,1,40,0,-1,0.0,0.0,121715,<lshift>,1,413
8109,1,41,0,-1,1.0,-1.0,123667,<lshift>,1,372
8109,1,42,0,-1,1.0,-1.0,125578,<lshift>,1,374
8109,1,43,0,-1,1.0,-1.0,127490,<lshift>,1,496
8109,1,44,0,-1,-1.0,1.0,129525,<rshift>,0,363
8109,1,45,0,1,0.0,0.0,131426,<rshift>,1,406
8109,1,46,0,1,0.0,0.0,133369,<rshift>,1,392
8109,1,47,0,-1,0.0,0.0,135300,<lshift>,1,364
8109,1,48,0,-1,,,137202,<lshift>,1,475
8109,1,49,0,-1,0.0,0.0,139217,<lshift>,1,435
8109,1,50,0,1,,,141190,<rshift>,1,424
8109,1,51,0,1,0.0,0.0,143154,<rshift>,1,424
8109,1,52,0,-1,1.0,-1.0,145117,<lshift>,1,411
8109,1,53,0,-1,0.0,0.0,147069,<lshift>,1,342
8109,1,54,0,-1,0.0,0.0,148949,<lshift>,1,365
8109,1,55,0,1,0.0,0.0,150850,<rshift>,1,356
8109,1,56,0,-1,,,152742,<lshift>,1,423
8109,1,57,0,1,1.0,1.0,154704,<rshift>,1,362
8109,1,58,0,-1,0.0,0.0,156606,<lshift>,1,342
8109,1,59,0,1,,,158487,<rshift>,1,412
8109,1,60,0,-1,-1.0,1.0,160439,<lshift>,1,638
8109,1,61,0,1,1.0,1.0,162617,<rshift>,1,381
8109,1,62,0,-1,-1.0,1.0,164539,<lshift>,1,544
8109,1,63,0,-1,,,166624,<lshift>,1,534
8109,1,64,0,1,-1.0,-1.0,168699,<rshift>,1,421
8109,1,65,0,1,,,170661,<rshift>,1,534
8109,1,66,0,1,,,172734,<lshift>,0,313
8109,1,67,0,1,-1.0,-1.0,174585,<rshift>,1,526
8109,1,68,0,1,0.0,0.0,176650,<rshift>,1,659
8109,1,69,0,1,1.0,1.0,178846,<rshift>,1,404
8109,1,70,0,-1,0.0,0.0,180789,<lshift>,1,415
8109,1,71,0,-1,1.0,-1.0,182741,<lshift>,1,423
8109,1,72,0,-1,-1.0,1.0,184704,<rshift>,0,374
8109,1,73,0,-1,,,186616,<lshift>,1,535
8109,1,74,0,1,,,188692,<rshift>,1,442
8109,1,75,0,1,1.0,1.0,190674,<rshift>,1,361
8109,1,76,0,1,0.0,0.0,192576,<rshift>,1,375
8109,1,77,0,1,1.0,1.0,194491,<rshift>,1,372
8109,1,78,0,-1,0.0,0.0,196402,<lshift>,1,609
8109,1,79,0,1,0.0,0.0,198549,<rshift>,1,332
8109,1,80,0,-1,0.0,0.0,200418,<lshift>,1,375
8109,1,81,0,1,1.0,1.0,202331,<rshift>,1,373
8109,1,82,0,1,1.0,1.0,204243,<rshift>,1,596
8109,1,83,0,-1,1.0,-1.0,206379,<lshift>,1,442
8109,1,84,0,-1,,,208362,<lshift>,1,624
8109,1,85,0,-1,1.0,-1.0,210528,<lshift>,1,382
8109,1,86,0,1,-1.0,-1.0,212450,<rshift>,1,576
8109,1,87,0,1,-1.0,-1.0,214567,<rshift>,1,512
8109,1,88,0,1,-1.0,-1.0,216620,<lshift>,0,381
8109,1,89,0,-1,,,218541,<lshift>,1,484
8109,1,90,0,1,,,220563,<rshift>,1,414
8109,1,91,0,1,0.0,0.0,222516,<rshift>,1,375
8109,1,92,0,-1,,,224428,<lshift>,1,438
8109,1,93,0,-1,-1.0,1.0,226405,<lshift>,1,472
8109,1,94,0,-1,0.0,0.0,228418,<lshift>,1,355
8109,1,95,0,-1,,,230312,<lshift>,1,371
8109,1,96,0,-1,1.0,-1.0,232224,<lshift>,1,372
8109,1,97,0,-1,-1.0,1.0,234136,<rshift>,0,413
8109,1,98,0,1,-1.0,-1.0,236090,<rshift>,1,523
8109,1,99,0,-1,,,238154,<lshift>,1,452
8109,1,100,0,1,0.0,0.0,240147,<rshift>,1,415
8109,1,101,0,-1,1.0,-1.0,242099,<lshift>,1,385
8109,1,102,0,1,-1.0,-1.0,244022,<rshift>,1,505
8109,1,103,0,1,0.0,0.0,246066,<rshift>,1,417
8109,1,104,0,1,1.0,1.0,248021,<rshift>,1,403
8109,1,105,0,-1,0.0,0.0,249964,<lshift>,1,617
8109,1,106,0,-1,1.0,-1.0,252119,<lshift>,1,524
8109,1,107,0,1,0.0,0.0,254183,<rshift>,1,475
8109,1,108,0,-1,-1.0,1.0,256198,<lshift>,1,523
8109,1,109,0,1,-1.0,-1.0,258262,<rshift>,1,443
8109,1,110,0,1,1.0,1.0,260246,<rshift>,1,334
8109,1,111,0,1,,,262120,<rshift>,1,422
8109,1,112,0,-1,1.0,-1.0,264083,<lshift>,1,351
8109,1,113,0,1,,,265973,<rshift>,1,345
8109,1,114,0,1,-1.0,-1.0,267856,<lshift>,0,385
8109,1,115,0,1,-1.0,-1.0,269780,<rshift>,1,453
8109,1,116,0,-1,-1.0,1.0,271773,<lshift>,1,525
8109,1,117,0,1,1.0,1.0,273837,<rshift>,1,373
8109,1,118,0,1,-1.0,-1.0,275750,<rshift>,1,412
8109,1,119,0,-1,0.0,0.0,277701,<lshift>,1,516
8109,1,120,0,1,1.0,1.0,279756,<rshift>,1,310
8109,1,121,0,-1,0.0,0.0,281608,<lshift>,1,424
8109,1,122,0,-1,-1.0,1.0,283571,<rshift>,0,382
8109,1,123,0,1,0.0,0.0,285494,<rshift>,1,463
8109,1,124,0,1,,,287496,<rshift>,1,454
8109,1,125,0,1,1.0,1.0,289489,<rshift>,1,436
8109,1,126,0,-1,1.0,-1.0,291462,<lshift>,1,486
8109,1,127,0,1,1.0,1.0,293487,<rshift>,1,393
8109,1,128,0,-1,1.0,-1.0,295419,<lshift>,1,505
8109,1,129,0,1,-1.0,-1.0,297463,<rshift>,1,556
8109,1,130,0,-1,-1.0,1.0,299558,<lshift>,1,544
8109,1,131,0,1,,,301642,<rshift>,1,423
8109,1,132,0,-1,,,303605,<lshift>,1,442
8109,1,133,0,-1,1.0,-1.0,305589,<lshift>,1,515
8109,1,134,0,1,0.0,0.0,307644,<rshift>,1,778
8109,1,135,0,1,,,309961,<rshift>,1,412
8109,1,136,0,1,,,311913,<rshift>,1,475
8109,1,137,0,-1,-1.0,1.0,313927,<lshift>,1,585
8109,1,138,0,-1,,,316051,<lshift>,1,494
8109,1,139,0,1,,,318085,<rshift>,1,353
8109,1,140,0,1,-1.0,-1.0,319977,<rshift>,1,506
8109,1,141,0,-1,0.0,0.0,322022,<lshift>,1,383
8109,1,142,0,1,1.0,1.0,323943,<rshift>,1,423
8109,1,143,0,1,-1.0,-1.0,325906,<lshift>,0,483
8109,1,144,0,1,1.0,1.0,327929,<rshift>,1,515
8109,1,145,0,-1,-1.0,1.0,329985,<lshift>,1,514
8109,1,146,0,1,1.0,1.0,332039,<rshift>,1,413
8109,1,147,0,1,,,333992,<rshift>,1,484
8109,1,148,0,-1,1.0,-1.0,336014,<lshift>,1,385
8109,1,149,0,-1,,,337938,<lshift>,1,453
8109,1,150,0,-1,-1.0,1.0,339930,<rshift>,0,313
8109,1,151,0,1,0.0,0.0,341782,<rshift>,1,597
8109,1,152,0,-1,,,343917,<lshift>,1,423
8109,1,153,0,-1,,,345879,<lshift>,1,382
8109,1,154,0,-1,1.0,-1.0,347801,<lshift>,1,372
8109,1,155,0,-1,0.0,0.0,349713,<lshift>,1,490
8109,1,156,0,1,-1.0,-1.0,351742,<lshift>,0,343
8109,1,157,0,-1,0.0,0.0,353625,<lshift>,1,656
8109,1,158,0,-1,,,355820,<lshift>,1,443
8109,1,159,0,1,,,357803,<rshift>,1,402
8109,1,160,0,1,1.0,1.0,359743,<rshift>,1,405
8109,1,161,0,1,-1.0,-1.0,361687,<rshift>,1,545
8109,1,162,0,-1,1.0,-1.0,363771,<lshift>,1,394
8109,1,163,0,1,,,365704,<rshift>,1,424
8109,1,164,0,1,-1.0,-1.0,367667,<rshift>,1,484
8109,1,165,0,-1,1.0,-1.0,369690,<lshift>,1,462
8109,1,166,0,1,,,371693,<rshift>,1,352
8109,1,167,0,-1,,,373585,<lshift>,1,444
8109,1,168,0,-1,-1.0,1.0,375569,<lshift>,1,645
8145,0,1,1,-1,-1.0,1.0,22400,<timeout>,0,801
8145,0,2,1,1,1.0,1.0,25116,<rshift>,1,548
8145,0,3,1,1,,,27578,<rshift>,1,539
8145,0,4,1,-1,0.0,0.0,30032,<lshift>,1,396
8145,0,5,1,1,-1.0,-1.0,32341,<rshift>,1,470
8145,0,6,1,-1,,,34726,<lshift>,1,365
8145,0,7,1,-1,1.0,-1.0,37006,<lshift>,1,415
8145,0,8,1,1,0.0,0.0,39337,<rshift>,1,305
8145,1,9,0,-1,0.0,0.0,50778,<lshift>,1,461
8145,1,10,0,-1,-1.0,1.0,52750,<lshift>,1,494
8145,1,11,0,-1,-1.0,1.0,54758,<lshift>,1,461
8145,1,12,0,1,0.0,0.0,56732,<rshift>,1,369
8145,1,13,0,1,0.0,0.0,58614,<rshift>,1,392
8145,1,14,0,1,,,60518,<rshift>,1,451
8145,1,15,0,1,1.0,1.0,62482,<rshift>,1,431
8145,1,16,0,-1,1.0,-1.0,64427,<lshift>,1,482
8145,1,17,0,1,,,66422,<rshift>,1,411
8145,1,18,0,1,1.0,1.0,68346,<rshift>,1,405
8145,1,19,0,-1,-1.0,1.0,70262,<lshift>,1,393
8145,1,20,0,-1,1.0,-1.0,72167,<lshift>,1,372
8145,1,21,0,1,1.0,1.0,74051,<rshift>,1,351
8145,1,22,0,1,,,75914,<rshift>,1,380
8145,1,23,0,-1,,,77807,<lshift>,1,367
8145,1,24,0,-1,,,79687,<lshift>,1,390
8145,1,25,0,1,-1.0,-1.0,81590,<rshift>,1,400
8145,1,26,0,-1,,,83504,<lshift>,1,390
8145,1,27,0,-1,,,85408,<lshift>,1,368
8145,1,28,0,1,-1.0,-1.0,87289,<rshift>,1,423
8145,1,29,0,1,1.0,1.0,89225,<rshift>,1,410
8145,1,30,0,1,0.0,0.0,91148,<rshift>,1,382
8145,1,31,0,1,0.0,0.0,93040,<rshift>,1,372
8145,1,32,0,1,0.0,0.0,94922,<rshift>,1,363
8145,1,33,0,1,,,96795,<rshift>,1,390
8145,1,34,0,-1,0.0,0.0,98698,<lshift>,1,374
8145,1,35,0,-1,-1.0,1.0,100583,<lshift>,1,439
8145,1,36,0,-1,,,102535,<lshift>,1,392
8145,1,37,0,1,,,104440,<rshift>,1,340
8145,1,38,0,-1,0.0,0.0,106293,<lshift>,1,372
8145,1,39,0,-1,1.0,-1.0,108177,<lshift>,1,460
8145,1,40,0,1,1.0,1.0,110151,<rshift>,1,400
8145,1,41,0,-1,1.0,-1.0,112065,<lshift>,1,399
8145,1,42,0,1,-1.0,-1.0,113977,<rshift>,1,421
8145,1,43,0,-1,1.0,-1.0,115910,<lshift>,1,413
8145,1,44,0,1,1.0,1.0,117835,<rshift>,1,379
8145,1,45,0,-1,0.0,0.0,119727,<lshift>,1,373
8145,1,46,0,-1,1.0,-1.0,121610,<lshift>,1,471
8145,1,47,0,-1,,,123594,<lshift>,1,450
8145,1,48,0,1,1.0,1.0,125557,<rshift>,1,378
8145,1,49,0,-1,,,127448,<lshift>,1,430
8145,1,50,0,-1,-1.0,1.0,129391,<lshift>,1,410
8145,1,51,0,-1,1.0,-1.0,131314,<lshift>,1,360
8145,1,52,0,-1,,,133188,<lshift>,1,360
8145,1,53,0,-1,1.0,-1.0,135061,<lshift>,1,410
8145,1,54,0,-1,-1.0,1.0,136984,<lshift>,1,452
8145,1,55,0,1,0.0,0.0,138948,<rshift>,1,425
8145,1,56,0,1,,,140883,<rshift>,1,412
8145,1,57,0,-1,-1.0,1.0,142807,<lshift>,1,432
8145,1,58,0,1,1.0,1.0,144751,<rshift>,1,399
8145,1,59,0,-1,-1.0,1.0,146662,<lshift>,1,431
8145,1,60,0,1,-1.0,-1.0,148606,<rshift>,1,430
8145,1,61,0,-1,,,150549,<lshift>,1,329
8145,1,62,0,-1,0.0,0.0,152391,<lshift>,1,412
8145,1,63,0,-1,,,154315,<lshift>,1,420
8145,1,64,0,-1,1.0,-1.0,156249,<lshift>,1,441
8145,1,65,0,1,0.0,0.0,158203,<rshift>,1,331
8145,1,66,0,-1,,,160046,<lshift>,1,491
8145,1,67,0,1,,,162049,<rshift>,1,382
8145,1,68,0,1,-1.0,-1.0,163941,<rshift>,1,473
8145,1,69,0,1,0.0,0.0,165925,<rshift>,1,394
8145,1,70,0,1,,,167829,<rshift>,1,399
8145,1,71,0,1,,,169741,<rshift>,1,364
8145,1,72,0,-1,-1.0,1.0,171618,<lshift>,1,390
8145,1,73,0,-1,0.0,0.0,173521,<lshift>,1,343
8145,1,74,0,1,,,175375,<rshift>,1,349
8145,1,75,0,-1,1.0,-1.0,177237,<lshift>,1,307
8145,1,76,0,-1,0.0,0.0,179058,<lshift>,1,310
8145,1,77,0,1,,,180880,<rshift>,1,431
8145,1,78,0,1,-1.0,-1.0,182824,<rshift>,1,400
8145,1,79,0,1,0.0,0.0,184737,<rshift>,1,361
8145,1,80,0,-1,1.0,-1.0,186608,<lshift>,1,362
8145,1,81,0,-1,,,188481,<lshift>,1,370
8145,1,82,0,1,1.0,1.0,190364,<rshift>,1,387
8145,1,83,0,-1,1.0,-1.0,192264,<lshift>,1,359
8145,1,84,0,1,0.0,0.0,194136,<rshift>,1,361
8145,1,85,0,1,,,196008,<rshift>,1,431
8145,1,86,0,1,-1.0,-1.0,197953,<rshift>,1,418
8145,1,87,0,1,0.0,0.0,199884,<rshift>,1,371
8145,1,88,0,-1,0.0,0.0,201767,<lshift>,1,362
8145,1,89,0,-1,0.0,0.0,203642,<lshift>,1,373
8145,1,90,0,1,-1.0,-1.0,205527,<rshift>,1,430
8145,1,91,0,-1,,,207470,<lshift>,1,400
8145,1,92,0,-1,0.0,0.0,209382,<lshift>,1,333
8145,1,93,0,1,-1.0,-1.0,211225,<rshift>,1,411
8145,1,94,0,-1,1.0,-1.0,213148,<lshift>,1,450
8145,1,95,0,1,-1.0,-1.0,215111,<rshift>,1,420
8145,1,96,0,-1,0.0,0.0,217044,<lshift>,1,330
8145,1,97,0,-1,0.0,0.0,218886,<lshift>,1,319
8145,1,98,0,-1,-1.0,1.0,220716,<lshift>,1,442
8145,1,99,0,-1,0.0,0.0,222671,<lshift>,1,350
8145,1,100,0,1,0.0,0.0,224533,<rshift>,1,362
8145,1,101,0,1,-1.0,-1.0,226409,<rshift>,1,480
8145,1,102,0,-1,1.0,-1.0,228403,<lshift>,1,367
8145,1,103,0,1,,,230284,<rshift>,1,319
8145,1,104,0,1,1.0,1.0,232116,<rshift>,1,432
8145,1,105,0,-1,-1.0,1.0,234059,<lshift>,1,420
8145,1,106,0,-1,-1.0,1.0,235992,<lshift>,1,440
8145,1,107,0,-1,0.0,0.0,237945,<lshift>,1,343
8145,1,108,0,1,-1.0,-1.0,239800,<rshift>,1,391
