Accuracy,Block,BlockNum,KEY,RESP,RT,StimType,Stimulus,Subject,Trial,key_pressed
1,SupervisedSparse,1,n,nottarget,3.361,nottarget,catch4,8040,1,
1,SupervisedSparse,1,x,target,1.046,target,test14,8040,2,
1,SupervisedSparse,1,x,target,0.561,target,test1,8040,3,
1,SupervisedSparse,1,n,nottarget,0.736,nottarget,contr15,8040,4,
1,SupervisedSparse,1,n,nottarget,0.5760000000000001,nottarget,contr4,8040,5,
1,SupervisedSparse,1,n,nottarget,0.38299999999999995,nottarget,contr6,8040,6,
1,SupervisedSparse,1,x,target,0.5710000000000001,target,test13,8040,7,
1,SupervisedSparse,1,n,nottarget,0.45899999999999996,nottarget,contr9,8040,8,
1,SupervisedSparse,1,n,nottarget,0.5579999999999999,nottarget,contr10,8040,9,
1,SupervisedSparse,1,n,nottarget,0.956,nottarget,catch8,8040,10,
1,SupervisedSparse,1,n,nottarget,0.515,nottarget,contr11,8040,11,
1,SupervisedSparse,1,x,target,0.363,target,test8,8040,12,
1,SupervisedSparse,1,x,target,0.37,target,test7,8040,13,
1,SupervisedSparse,1,n,nottarget,0.672,nottarget,catch7,8040,14,
1,SupervisedSparse,1,n,nottarget,0.555,nottarget,contr12,8040,15,
1,SupervisedSparse,1,n,nottarget,0.33,nottarget,contr3,8040,16,
1,SupervisedSparse,1,n,nottarget,0.322,nottarget,contr13,8040,17,
1,SupervisedSparse,1,x,target,0.475,target,test15,8040,18,
1,SupervisedSparse,1,x,target,0.31,target,test4,8040,19,
1,SupervisedSparse,1,n,nottarget,0.397,nottarget,catch6,8040,20,
1,SupervisedSparse,1,x,target,0.5710000000000001,target,test6,8040,21,
1,SupervisedSparse,1,n,nottarget,0.5379999999999999,nottarget,catch3,8040,22,
1,SupervisedSparse,1,n,nottarget,0.39299999999999996,nottarget,catch1,8040,23,
1,SupervisedSparse,1,n,nottarget,0.423,nottarget,contr2,8040,24,
1,SupervisedSparse,1,x,target,0.66,target,test11,8040,25,
1,SupervisedSparse,1,n,nottarget,0.47100000000000003,nottarget,contr1,8040,26,
1,SupervisedSparse,1,n,nottarget,0.514,nottarget,catch5,8040,27,
1,SupervisedSparse,1,x,target,0.49,target,test10,8040,28,
1,SupervisedSparse,1,x,target,0.612,target,test2,8040,29,
1,SupervisedSparse,1,x,target,0.376,target,test3,8040,30,
1,SupervisedSparse,1,x,target,0.5670000000000001,target,test5,8040,31,
1,SupervisedSparse,1,n,nottarget,0.502,nottarget,contr5,8040,32,
1,SupervisedSparse,1,x,target,0.501,target,test12,8040,33,
1,SupervisedSparse,1,n,nottarget,0.46399999999999997,nottarget,catch2,8040,34,
1,SupervisedSparse,1,x,target,0.555,target,test9,8040,35,
1,SupervisedSparse,1,n,nottarget,0.682,nottarget,contr16,8040,36,
1,SupervisedSparse,1,x,target,0.42,target,test16,8040,37,
1,SupervisedSparse,1,n,nottarget,0.465,nottarget,contr8,8040,38,
1,SupervisedSparse,1,n,nottarget,0.564,nottarget,contr7,8040,39,
1,SupervisedSparse,1,n,nottarget,0.37,nottarget,contr14,8040,40,
1,SupervisedDense,2,x,target,1.8730000000000002,target,test10,8040,1,
1,SupervisedDense,2,n,nottarget,0.9209999999999999,nottarget,catch4,8040,2,
1,SupervisedDense,2,n,nottarget,0.963,nottarget,catch7,8040,3,
1,SupervisedDense,2,n,nottarget,0.586,nottarget,contr12,8040,4,
1,SupervisedDense,2,n,nottarget,0.447,nottarget,contr4,8040,5,
1,SupervisedDense,2,x,target,0.635,target,test11,8040,6,
1,SupervisedDense,2,n,nottarget,0.496,nottarget,contr7,8040,7,
1,SupervisedDense,2,n,nottarget,0.616,nottarget,catch2,8040,8,
1,SupervisedDense,2,n,nottarget,0.534,nottarget,contr8,8040,9,
1,SupervisedDense,2,n,nottarget,0.478,nottarget,catch8,8040,10,
1,SupervisedDense,2,n,nottarget,0.408,nottarget,catch1,8040,11,
1,SupervisedDense,2,x,target,0.62,target,test1,8040,12,
1,SupervisedDense,2,n,nottarget,0.522,nottarget,contr13,8040,13,
1,SupervisedDense,2,n,nottarget,0.5379999999999999,nottarget,contr11,8040,14,
1,SupervisedDense,2,x,target,0.562,target,test8,8040,15,
1,SupervisedDense,2,n,nottarget,0.449,nottarget,contr16,8040,16,
1,SupervisedDense,2,n,nottarget,0.373,nottarget,contr1,8040,17,
1,SupervisedDense,2,n,nottarget,0.467,nottarget,catch6,8040,18,
1,SupervisedDense,2,x,target,0.485,target,test16,8040,19,
1,SupervisedDense,2,n,nottarget,0.527,nottarget,contr3,8040,20,
1,SupervisedDense,2,x,target,0.391,target,test7,8040,21,
1,SupervisedDense,2,x,target,0.5329999999999999,target,test15,8040,22,
1,SupervisedDense,2,n,nottarget,0.589,nottarget,contr5,8040,23,
1,SupervisedDense,2,x,target,0.498,target,test9,8040,24,
1,SupervisedDense,2,n,nottarget,0.444,nottarget,contr9,8040,25,
1,SupervisedDense,2,n,nottarget,0.496,nottarget,catch5,8040,26,
1,SupervisedDense,2,n,nottarget,0.496,nottarget,contr2,8040,27,
1,SupervisedDense,2,x,target,0.498,target,test13,8040,28,
1,SupervisedDense,2,x,target,0.5710000000000001,target,test12,8040,29,
1,SupervisedDense,2,x,target,0.419,target,test14,8040,30,
1,SupervisedDense,2,n,nottarget,0.38299999999999995,nottarget,catch3,8040,31,
1,SupervisedDense,2,x,target,0.589,target,test5,8040,32,
0,SupervisedDense,2,n,nottarget,0.396,target,test4,8040,33,
1,SupervisedDense,2,n,nottarget,0.88,nottarget,contr15,8040,34,
1,SupervisedDense,2,x,target,0.379,target,test2,8040,35,
1,SupervisedDense,2,n,nottarget,0.49,nottarget,contr14,8040,36,
1,SupervisedDense,2,n,nottarget,0.434,nottarget,contr10,8040,37,
1,SupervisedDense,2,x,target,0.51,target,test3,8040,38,
1,SupervisedDense,2,n,nottarget,0.544,nottarget,contr6,8040,39,
1,SupervisedDense,2,x,target,0.455,target,test6,8040,40,
0,UnsupervisedSparse,3,n,nottarget,4.6419999999999995,target,test11,8040,1,
1,UnsupervisedSparse,3,x,target,0.7240000000000001,target,test4,8040,2,
1,UnsupervisedSparse,3,n,nottarget,1.013,nottarget,catch8,8040,3,
0,UnsupervisedSparse,3,x,target,0.7609999999999999,nottarget,contr15,8040,4,
0,UnsupervisedSparse,3,x,target,0.623,nottarget,contr9,8040,5,
1,UnsupervisedSparse,3,n,nottarget,1.052,nottarget,contr1,8040,6,
1,UnsupervisedSparse,3,n,nottarget,0.7979999999999999,nottarget,catch7,8040,7,
0,UnsupervisedSparse,3,n,nottarget,0.35700000000000004,target,test10,8040,8,
1,UnsupervisedSparse,3,x,target,0.275,target,test9,8040,9,
1,UnsupervisedSparse,3,n,nottarget,0.317,nottarget,contr7,8040,10,
1,UnsupervisedSparse,3,x,target,0.0,target,test3,8040,11,
1,UnsupervisedSparse,3,n,nottarget,0.0,nottarget,contr2,8040,12,
1,UnsupervisedSparse,3,n,nottarget,0.945,nottarget,contr5,8040,13,
1,UnsupervisedSparse,3,x,target,0.695,target,test15,8040,14,
1,UnsupervisedSparse,3,n,nottarget,0.48200000000000004,nottarget,catch3,8040,15,
1,UnsupervisedSparse,3,x,target,0.66,target,test6,8040,16,
1,UnsupervisedSparse,3,n,nottarget,1.07,nottarget,contr10,8040,17,
1,UnsupervisedSparse,3,n,nottarget,0.49700000000000005,nottarget,contr4,8040,18,
0,UnsupervisedSparse,3,x,target,0.627,nottarget,contr11,8040,19,
0,UnsupervisedSparse,3,n,nottarget,0.326,target,test12,8040,20,
0,UnsupervisedSparse,3,x,target,0.39899999999999997,nottarget,contr6,8040,21,
0,UnsupervisedSparse,3,x,target,0.278,nottarget,catch6,8040,22,
0,UnsupervisedSparse,3,n,nottarget,0.294,target,test14,8040,23,
0,UnsupervisedSparse,3,x,target,0.568,nottarget,contr14,8040,24,
0,UnsupervisedSparse,3,x,target,0.375,nottarget,contr8,8040,25,
1,UnsupervisedSparse,3,n,nottarget,0.42200000000000004,nottarget,catch4,8040,26,
1,UnsupervisedSparse,3,x,target,0.32899999999999996,target,test7,8040,27,
1,UnsupervisedSparse,3,x,target,0.33,target,test2,8040,28,
1,UnsupervisedSparse,3,n,nottarget,0.61,nottarget,catch2,8040,29,
1,UnsupervisedSparse,3,x,target,0.574,target,test8,8040,30,
1,UnsupervisedSparse,3,n,nottarget,0.33299999999999996,nottarget,contr13,8040,31,
1,UnsupervisedSparse,3,x,target,0.461,target,test16,8040,32,
0,UnsupervisedSparse,3,x,target,0.327,nottarget,contr12,8040,33,
0,UnsupervisedSparse,3,x,target,0.287,nottarget,contr16,8040,34,
1,UnsupervisedSparse,3,x,target,0.315,target,test5,8040,35,
1,UnsupervisedSparse,3,x,target,0.419,target,test1,8040,36,
1,UnsupervisedSparse,3,x,target,0.303,target,test13,8040,37,
0,UnsupervisedSparse,3,x,target,0.289,nottarget,catch5,8040,38,
1,UnsupervisedSparse,3,n,nottarget,0.418,nottarget,catch1,8040,39,
1,UnsupervisedSparse,3,n,nottarget,0.36,nottarget,contr3,8040,40,
1,UnsupervisedDense,4,x,target,3.424,target,test3,8040,1,
1,UnsupervisedDense,4,n,nottarget,1.067,nottarget,catch3,8040,2,
1,UnsupervisedDense,4,x,target,0.526,target,test5,8040,3,
1,UnsupervisedDense,4,x,target,0.5579999999999999,target,test16,8040,4,
1,UnsupervisedDense,4,n,nottarget,0.428,nottarget,catch8,8040,5,
1,UnsupervisedDense,4,n,nottarget,1.153,nottarget,contr8,8040,6,
1,UnsupervisedDense,4,x,target,0.5489999999999999,target,test10,8040,7,
1,UnsupervisedDense,4,n,nottarget,0.43799999999999994,nottarget,catch7,8040,8,
1,UnsupervisedDense,4,n,nottarget,0.89,nottarget,contr1,8040,9,
1,UnsupervisedDense,4,n,nottarget,0.594,nottarget,catch1,8040,10,
1,UnsupervisedDense,4,x,target,0.76,target,test8,8040,11,
1,UnsupervisedDense,4,x,target,0.6629999999999999,target,test15,8040,12,
1,UnsupervisedDense,4,n,nottarget,0.489,nottarget,catch6,8040,13,
1,UnsupervisedDense,4,n,nottarget,0.804,nottarget,contr13,8040,14,
1,UnsupervisedDense,4,x,target,0.5529999999999999,target,test1,8040,15,
1,UnsupervisedDense,4,x,target,1.232,target,test4,8040,16,
1,UnsupervisedDense,4,n,nottarget,0.773,nottarget,contr5,8040,17,
1,UnsupervisedDense,4,x,target,0.915,target,test12,8040,18,
1,UnsupervisedDense,4,n,nottarget,0.899,nottarget,contr16,8040,19,
1,UnsupervisedDense,4,x,target,0.684,target,test6,8040,20,
1,UnsupervisedDense,4,n,nottarget,0.516,nottarget,catch5,8040,21,
1,UnsupervisedDense,4,x,target,0.87,target,test13,8040,22,
1,UnsupervisedDense,4,n,nottarget,0.937,nottarget,contr10,8040,23,
1,UnsupervisedDense,4,n,nottarget,0.527,nottarget,catch4,8040,24,
1,UnsupervisedDense,4,n,nottarget,0.664,nottarget,contr2,8040,25,
1,UnsupervisedDense,4,x,target,0.57,target,test11,8040,26,
1,UnsupervisedDense,4,n,nottarget,0.6629999999999999,nottarget,contr11,8040,27,
0,UnsupervisedDense,4,x,target,0.595,nottarget,contr12,8040,28,
1,UnsupervisedDense,4,n,nottarget,0.68,nottarget,contr3,8040,29,
1,UnsupervisedDense,4,n,nottarget,0.488,nottarget,contr14,8040,30,
0,UnsupervisedDense,4,n,nottarget,0.387,target,test14,8040,31,
1,UnsupervisedDense,4,x,target,0.618,target,test7,8040,32,
1,UnsupervisedDense,4,x,target,0.5720000000000001,target,test2,8040,33,
1,UnsupervisedDense,4,n,nottarget,0.42700000000000005,nottarget,contr15,8040,34,
1,UnsupervisedDense,4,n,nottarget,0.455,nottarget,contr9,8040,35,
1,UnsupervisedDense,4,n,nottarget,0.545,nottarget,catch2,8040,36,
1,UnsupervisedDense,4,n,nottarget,0.858,nottarget,contr7,8040,37,
1,UnsupervisedDense,4,n,nottarget,0.6609999999999999,nottarget,contr4,8040,38,
0,UnsupervisedDense,4,x,target,0.823,nottarget,contr6,8040,39,
1,UnsupervisedDense,4,x,target,0.626,target,test9,8040,40,
1,SupervisedSparse,1,,nottarget,1.544,nottarget,catch2,8180,1,n
1,SupervisedSparse,1,,target,1.399,target,test16,8180,2,x
1,SupervisedSparse,1,,target,1.2209999999999999,target,test10,8180,3,x
1,SupervisedSparse,1,,nottarget,0.585,nottarget,catch7,8180,4,n
0,SupervisedSparse,1,,target,0.752,nottarget,contr5,8180,5,x
1,SupervisedSparse,1,,nottarget,1.08,nottarget,contr15,8180,6,n
1,SupervisedSparse,1,,nottarget,0.8079999999999999,nottarget,contr7,8180,7,n
1,SupervisedSparse,1,,target,0.486,target,test3,8180,8,x
1,SupervisedSparse,1,,nottarget,0.584,nottarget,contr12,8180,9,n
1,SupervisedSparse,1,,nottarget,0.8370000000000001,nottarget,contr8,8180,10,n
1,SupervisedSparse,1,,nottarget,0.674,nottarget,catch6,8180,11,n
1,SupervisedSparse,1,,target,0.981,target,test2,8180,12,x
1,SupervisedSparse,1,,target,0.625,target,test5,8180,13,x
1,SupervisedSparse,1,,nottarget,0.726,nottarget,catch8,8180,14,n
1,SupervisedSparse,1,,nottarget,0.8059999999999999,nottarget,contr13,8180,15,n
1,SupervisedSparse,1,,target,0.7070000000000001,target,test6,8180,16,x
1,SupervisedSparse,1,,target,0.636,target,test15,8180,17,x
1,SupervisedSparse,1,,nottarget,0.495,nottarget,catch1,8180,18,n
1,SupervisedSparse,1,,nottarget,0.53,nottarget,contr14,8180,19,n
1,SupervisedSparse,1,,nottarget,0.626,nottarget,contr2,8180,20,n
1,SupervisedSparse,1,,target,0.6779999999999999,target,test1,8180,21,x
1,SupervisedSparse,1,,nottarget,0.511,nottarget,catch4,8180,22,n
1,SupervisedSparse,1,,nottarget,0.737,nottarget,contr3,8180,23,n
1,SupervisedSparse,1,,nottarget,0.431,nottarget,contr10,8180,24,n
1,SupervisedSparse,1,,nottarget,0.42100000000000004,nottarget,contr9,8180,25,n
1,SupervisedSparse,1,,nottarget,0.41,nottarget,contr1,8180,26,n
1,SupervisedSparse,1,,nottarget,0.742,nottarget,contr4,8180,27,n
1,SupervisedSparse,1,,nottarget,0.764,nottarget,contr16,8180,28,n
0,SupervisedSparse,1,,target,1.124,nottarget,contr6,8180,29,x
1,SupervisedSparse,1,,nottarget,1.195,nottarget,catch3,8180,30,n
0,SupervisedSparse,1,,target,0.649,nottarget,contr11,8180,31,x
1,SupervisedSparse,1,,target,0.7090000000000001,target,test13,8180,32,x
1,SupervisedSparse,1,,nottarget,1.052,nottarget,catch5,8180,33,n
1,SupervisedSparse,1,,target,0.904,target,test9,8180,34,x
1,SupervisedSparse,1,,target,0.617,target,test8,8180,35,x
1,SupervisedSparse,1,,target,0.767,target,test14,8180,36,x
1,SupervisedSparse,1,,target,1.117,target,test7,8180,37,x
1,SupervisedSparse,1,,target,0.9329999999999999,target,test11,8180,38,x
0,SupervisedSparse,1,,nottarget,0.8140000000000001,target,test4,8180,39,n
0,SupervisedSparse,1,,nottarget,0.867,target,test12,8180,40,n
1,UnsupervisedSparse,2,,target,2.279,target,test6,8180,1,x
1,UnsupervisedSparse,2,,nottarget,1.344,nottarget,contr12,8180,2,n
1,UnsupervisedSparse,2,,target,2.2159999999999997,target,test1,8180,3,x
1,UnsupervisedSparse,2,,target,2.508,target,test11,8180,4,x
1,UnsupervisedSparse,2,,target,1.979,target,test3,8180,5,x
1,UnsupervisedSparse,2,,target,2.394,target,test10,8180,6,x
1,UnsupervisedSparse,2,,nottarget,1.102,nottarget,contr13,8180,7,n
1,UnsupervisedSparse,2,,nottarget,1.2,nottarget,catch8,8180,8,n
1,UnsupervisedSparse,2,,target,0.763,target,test16,8180,9,x
1,UnsupervisedSparse,2,,target,1.083,target,test14,8180,10,x
1,UnsupervisedSparse,2,,nottarget,0.868,nottarget,contr7,8180,11,n
1,UnsupervisedSparse,2,,nottarget,0.56,nottarget,contr1,8180,12,n
1,UnsupervisedSparse,2,,target,0.647,target,test13,8180,13,x
1,UnsupervisedSparse,2,,nottarget,0.785,nottarget,catch6,8180,14,n
1,UnsupervisedSparse,2,,nottarget,0.752,nottarget,catch7,8180,15,n
1,UnsupervisedSparse,2,,nottarget,0.68,nottarget,catch5,8180,16,n
0,UnsupervisedSparse,2,,target,0.616,nottarget,contr10,8180,17,x
1,UnsupervisedSparse,2,,nottarget,0.925,nottarget,contr16,8180,18,n
1,UnsupervisedSparse,2,,target,0.718,target,test9,8180,19,x
1,UnsupervisedSparse,2,,target,1.4780000000000002,target,test5,8180,20,x
1,UnsupervisedSparse,2,,target,0.785,target,test12,8180,21,x
1,UnsupervisedSparse,2,,nottarget,0.71,nottarget,catch3,8180,22,n
1,UnsupervisedSparse,2,,target,0.823,target,test2,8180,23,x
1,UnsupervisedSparse,2,,nottarget,0.7070000000000001,nottarget,contr4,8180,24,n
1,UnsupervisedSparse,2,,nottarget,0.603,nottarget,catch4,8180,25,n
1,UnsupervisedSparse,2,,target,0.649,target,test8,8180,26,x
1,UnsupervisedSparse,2,,target,0.493,target,test15,8180,27,x
0,UnsupervisedSparse,2,,target,0.493,nottarget,contr3,8180,28,x
1,UnsupervisedSparse,2,,nottarget,0.528,nottarget,contr9,8180,29,n
1,UnsupervisedSparse,2,,nottarget,0.672,nottarget,contr11,8180,30,n
1,UnsupervisedSparse,2,,nottarget,0.6970000000000001,nottarget,catch1,8180,31,n
1,UnsupervisedSparse,2,,nottarget,0.731,nottarget,contr5,8180,32,n
1,UnsupervisedSparse,2,,nottarget,0.7879999999999999,nottarget,contr2,8180,33,n
1,UnsupervisedSparse,2,,target,0.8170000000000001,target,test7,8180,34,x
1,UnsupervisedSparse,2,,target,0.8220000000000001,target,test4,8180,35,x
1,UnsupervisedSparse,2,,nottarget,0.619,nottarget,contr14,8180,36,n
1,UnsupervisedSparse,2,,nottarget,0.59,nottarget,contr8,8180,37,n
1,UnsupervisedSparse,2,,nottarget,0.644,nottarget,catch2,8180,38,n
1,UnsupervisedSparse,2,,nottarget,0.68,nottarget,contr15,8180,39,n
1,UnsupervisedSparse,2,,nottarget,0.578,nottarget,contr6,8180,40,n
1,SupervisedDense,3,,nottarget,1.52,nottarget,contr1,8180,1,n
1,SupervisedDense,3,,nottarget,1.121,nottarget,contr5,8180,2,n
1,SupervisedDense,3,,nottarget,0.736,nottarget,contr9,8180,3,n
1,SupervisedDense,3,,nottarget,1.04,nottarget,catch4,8180,4,n
1,SupervisedDense,3,,nottarget,0.579,nottarget,catch6,8180,5,n
1,SupervisedDense,3,,nottarget,0.754,nottarget,contr12,8180,6,n
1,SupervisedDense,3,,nottarget,0.8740000000000001,nottarget,contr10,8180,7,n
1,SupervisedDense,3,,nottarget,0.691,nottarget,catch2,8180,8,n
1,SupervisedDense,3,,nottarget,1.5730000000000002,nottarget,contr6,8180,9,n
1,SupervisedDense,3,,nottarget,3.154,nottarget,contr15,8180,10,n
1,SupervisedDense,3,,target,0.8809999999999999,target,test15,8180,11,x
1,SupervisedDense,3,,target,0.866,target,test11,8180,12,x
1,SupervisedDense,3,,nottarget,0.67,nottarget,catch5,8180,13,n
1,SupervisedDense,3,,target,1.072,target,test10,8180,14,x
1,SupervisedDense,3,,nottarget,0.675,nottarget,contr3,8180,15,n
1,SupervisedDense,3,,nottarget,0.525,nottarget,contr11,8180,16,n
1,SupervisedDense,3,,target,0.596,target,test8,8180,17,x
1,SupervisedDense,3,,nottarget,0.547,nottarget,contr8,8180,18,n
1,SupervisedDense,3,,target,0.5539999999999999,target,test6,8180,19,x
1,SupervisedDense,3,,target,0.5760000000000001,target,test2,8180,20,x
1,SupervisedDense,3,,nottarget,0.6709999999999999,nottarget,contr13,8180,21,n
1,SupervisedDense,3,,target,0.498,target,test14,8180,22,x
1,SupervisedDense,3,,nottarget,0.6679999999999999,nottarget,catch1,8180,23,n
1,SupervisedDense,3,,target,0.79,target,test4,8180,24,x
1,SupervisedDense,3,,nottarget,1.219,nottarget,catch3,8180,25,n
1,SupervisedDense,3,,nottarget,0.647,nottarget,contr14,8180,26,n
1,SupervisedDense,3,,nottarget,0.49200000000000005,nottarget,contr2,8180,27,n
1,SupervisedDense,3,,target,0.605,target,test16,8180,28,x
1,SupervisedDense,3,,target,0.593,target,test5,8180,29,x
1,SupervisedDense,3,,target,0.5920000000000001,target,test12,8180,30,x
1,SupervisedDense,3,,nottarget,0.605,nottarget,contr4,8180,31,n
1,SupervisedDense,3,,nottarget,0.665,nottarget,catch8,8180,32,n
1,SupervisedDense,3,,target,0.6609999999999999,target,test3,8180,33,x
1,SupervisedDense,3,,nottarget,0.552,nottarget,catch7,8180,34,n
1,SupervisedDense,3,,target,0.638,target,test7,8180,35,x
1,SupervisedDense,3,,target,0.515,target,test1,8180,36,x
1,SupervisedDense,3,,target,0.7240000000000001,target,test9,8180,37,x
1,SupervisedDense,3,,nottarget,0.579,nottarget,contr16,8180,38,n
1,SupervisedDense,3,,nottarget,0.586,nottarget,contr7,8180,39,n
1,SupervisedDense,3,,target,0.608,target,test13,8180,40,x
1,UnsupervisedDense,4,,nottarget,1.361,nottarget,catch1,8180,1,n
1,UnsupervisedDense,4,,target,1.9669999999999999,target,test7,8180,2,x
1,UnsupervisedDense,4,,target,0.511,target,test9,8180,3,x
1,UnsupervisedDense,4,,target,0.645,target,test8,8180,4,x
1,UnsupervisedDense,4,,nottarget,0.889,nottarget,contr15,8180,5,n
1,UnsupervisedDense,4,,nottarget,0.499,nottarget,contr8,8180,6,n
1,UnsupervisedDense,4,,nottarget,0.715,nottarget,catch3,8180,7,n
1,UnsupervisedDense,4,,nottarget,0.516,nottarget,catch2,8180,8,n
0,UnsupervisedDense,4,,target,0.5660000000000001,nottarget,contr16,8180,9,x
1,UnsupervisedDense,4,,nottarget,0.6679999999999999,nottarget,contr11,8180,10,n
1,UnsupervisedDense,4,,target,0.7440000000000001,target,test3,8180,11,x
1,UnsupervisedDense,4,,nottarget,0.679,nottarget,catch7,8180,12,n
1,UnsupervisedDense,4,,nottarget,0.728,nottarget,catch5,8180,13,n
1,UnsupervisedDense,4,,nottarget,0.8009999999999999,nottarget,contr7,8180,14,n
1,UnsupervisedDense,4,,target,0.7490000000000001,target,test5,8180,15,x
1,UnsupervisedDense,4,,nottarget,0.6459999999999999,nottarget,contr3,8180,16,n
1,UnsupervisedDense,4,,nottarget,0.857,nottarget,contr13,8180,17,n
1,UnsupervisedDense,4,,nottarget,0.691,nottarget,catch6,8180,18,n
1,UnsupervisedDense,4,,nottarget,0.637,nottarget,contr9,8180,19,n
1,UnsupervisedDense,4,,target,0.514,target,test15,8180,20,x
1,UnsupervisedDense,4,,nottarget,0.657,nottarget,contr5,8180,21,n
1,UnsupervisedDense,4,,nottarget,0.557,nottarget,contr4,8180,22,n
1,UnsupervisedDense,4,,target,0.7140000000000001,target,test6,8180,23,x
1,UnsupervisedDense,4,,nottarget,0.7070000000000001,nottarget,contr2,8180,24,n
1,UnsupervisedDense,4,,nottarget,0.597,nottarget,contr10,8180,25,n
1,UnsupervisedDense,4,,nottarget,0.48200000000000004,nottarget,contr6,8180,26,n
1,UnsupervisedDense,4,,target,0.795,target,test1,8180,27,x
1,UnsupervisedDense,4,,target,0.642,target,test12,8180,28,x
1,UnsupervisedDense,4,,nottarget,0.7090000000000001,nottarget,contr1,8180,29,n
1,UnsupervisedDense,4,,nottarget,0.621,nottarget,contr12,8180,30,n
1,UnsupervisedDense,4,,target,0.753,target,test10,8180,31,x
1,UnsupervisedDense,4,,nottarget,0.738,nottarget,contr14,8180,32,n
1,UnsupervisedDense,4,,target,1.0959999999999999,target,test11,8180,33,x
1,UnsupervisedDense,4,,target,1.01,target,test16,8180,34,x
1,UnsupervisedDense,4,,target,0.647,target,test14,8180,35,x
1,UnsupervisedDense,4,,target,0.723,target,test13,8180,36,x
1,UnsupervisedDense,4,,target,0.6990000000000001,target,test2,8180,37,x
1,UnsupervisedDense,4,,target,0.644,target,test4,8180,38,x
1,UnsupervisedDense,4,,nottarget,0.568,nottarget,catch4,8180,39,n
1,UnsupervisedDense,4,,nottarget,0.607,nottarget,catch8,8180,40,n
1,SupervisedDense,1,n,nottarget,1.804,nottarget,contr12,8140,1,
1,SupervisedDense,1,n,nottarget,1.864,nottarget,contr15,8140,2,
1,SupervisedDense,1,x,target,1.315,target,test1,8140,3,
1,SupervisedDense,1,n,nottarget,1.475,nottarget,catch5,8140,4,
1,SupervisedDense,1,n,nottarget,1.117,nottarget,contr9,8140,5,
1,SupervisedDense,1,n,nottarget,0.797,nottarget,contr1,8140,6,
1,SupervisedDense,1,x,target,0.8340000000000001,target,test10,8140,7,
1,SupervisedDense,1,n,nottarget,0.67,nottarget,contr14,8140,8,
1,SupervisedDense,1,x,target,0.545,target,test15,8140,9,
1,SupervisedDense,1,x,target,0.904,target,test11,8140,10,
1,SupervisedDense,1,n,nottarget,1.12,nottarget,catch8,8140,11,
1,SupervisedDense,1,n,nottarget,0.713,nottarget,contr8,8140,12,
1,SupervisedDense,1,n,nottarget,0.474,nottarget,contr11,8140,13,
1,SupervisedDense,1,n,nottarget,0.475,nottarget,contr16,8140,14,
1,SupervisedDense,1,n,nottarget,0.598,nottarget,contr13,8140,15,
1,SupervisedDense,1,n,nottarget,0.556,nottarget,contr5,8140,16,
1,SupervisedDense,1,n,nottarget,0.746,nottarget,catch3,8140,17,
1,SupervisedDense,1,n,nottarget,0.682,nottarget,catch1,8140,18,
1,SupervisedDense,1,n,nottarget,0.588,nottarget,contr2,8140,19,
1,SupervisedDense,1,x,target,0.594,target,test4,8140,20,
1,SupervisedDense,1,x,target,0.39899999999999997,target,test13,8140,21,
1,SupervisedDense,1,n,nottarget,0.677,nottarget,contr7,8140,22,
1,SupervisedDense,1,n,nottarget,0.486,nottarget,contr4,8140,23,
1,SupervisedDense,1,x,target,0.601,target,test2,8140,24,
1,SupervisedDense,1,n,nottarget,0.5820000000000001,nottarget,contr6,8140,25,
1,SupervisedDense,1,x,target,0.9,target,test5,8140,26,
1,SupervisedDense,1,x,target,0.581,target,test9,8140,27,
1,SupervisedDense,1,x,target,0.588,target,test7,8140,28,
1,SupervisedDense,1,n,nottarget,0.7040000000000001,nottarget,catch2,8140,29,
1,SupervisedDense,1,x,target,0.578,target,test14,8140,30,
1,SupervisedDense,1,n,nottarget,0.528,nottarget,catch7,8140,31,
1,SupervisedDense,1,n,nottarget,0.488,nottarget,contr3,8140,32,
1,SupervisedDense,1,n,nottarget,0.474,nottarget,contr10,8140,33,
1,SupervisedDense,1,x,target,0.469,target,test3,8140,34,
1,SupervisedDense,1,n,nottarget,0.47100000000000003,nottarget,catch6,8140,35,
1,SupervisedDense,1,n,nottarget,0.6579999999999999,nottarget,catch4,8140,36,
1,SupervisedDense,1,x,target,0.628,target,test16,8140,37,
0,SupervisedDense,1,n,nottarget,0.601,target,test6,8140,38,
1,SupervisedDense,1,x,target,0.525,target,test12,8140,39,
1,SupervisedDense,1,x,target,0.45399999999999996,target,test8,8140,40,
1,UnsupervisedDense,2,x,target,1.095,target,test13,8140,1,
1,UnsupervisedDense,2,n,nottarget,1.0959999999999999,nottarget,catch2,8140,2,
1,UnsupervisedDense,2,n,nottarget,1.041,nottarget,catch1,8140,3,
1,UnsupervisedDense,2,x,target,0.652,target,test15,8140,4,
1,UnsupervisedDense,2,n,nottarget,0.7440000000000001,nottarget,catch7,8140,5,
1,UnsupervisedDense,2,n,nottarget,1.6480000000000001,nottarget,contr2,8140,6,
1,UnsupervisedDense,2,n,nottarget,0.531,nottarget,contr13,8140,7,
1,UnsupervisedDense,2,n,nottarget,0.8909999999999999,nottarget,contr6,8140,8,
1,UnsupervisedDense,2,n,nottarget,0.499,nottarget,contr7,8140,9,
1,UnsupervisedDense,2,n,nottarget,0.532,nottarget,catch3,8140,10,
1,UnsupervisedDense,2,n,nottarget,0.652,nottarget,contr8,8140,11,
1,UnsupervisedDense,2,x,target,0.703,target,test6,8140,12,
1,UnsupervisedDense,2,n,nottarget,0.52,nottarget,catch8,8140,13,
1,UnsupervisedDense,2,x,target,0.825,target,test16,8140,14,
1,UnsupervisedDense,2,n,nottarget,0.5870000000000001,nottarget,contr9,8140,15,
1,UnsupervisedDense,2,x,target,0.562,target,test8,8140,16,
1,UnsupervisedDense,2,x,target,0.721,target,test2,8140,17,
1,UnsupervisedDense,2,n,nottarget,0.545,nottarget,contr3,8140,18,
1,UnsupervisedDense,2,x,target,1.296,target,test1,8140,19,
1,UnsupervisedDense,2,n,nottarget,0.521,nottarget,contr15,8140,20,
1,UnsupervisedDense,2,x,target,0.521,target,test7,8140,21,
1,UnsupervisedDense,2,x,target,0.642,target,test14,8140,22,
0,UnsupervisedDense,2,n,nottarget,0.637,target,test4,8140,23,
1,UnsupervisedDense,2,n,nottarget,0.703,nottarget,catch4,8140,24,
1,UnsupervisedDense,2,n,nottarget,0.593,nottarget,contr1,8140,25,
1,UnsupervisedDense,2,n,nottarget,0.6940000000000001,nottarget,contr5,8140,26,
1,UnsupervisedDense,2,n,nottarget,0.5429999999999999,nottarget,catch5,8140,27,
1,UnsupervisedDense,2,n,nottarget,0.647,nottarget,contr14,8140,28,
1,UnsupervisedDense,2,n,nottarget,0.586,nottarget,catch6,8140,29,
1,UnsupervisedDense,2,x,target,0.655,target,test5,8140,30,
1,UnsupervisedDense,2,n,nottarget,0.604,nottarget,contr11,8140,31,
1,UnsupervisedDense,2,x,target,0.56,target,test12,8140,32,
1,UnsupervisedDense,2,x,target,0.631,target,test3,8140,33,
1,UnsupervisedDense,2,x,target,0.539,target,test10,8140,34,
1,UnsupervisedDense,2,n,nottarget,0.61,nottarget,contr10,8140,35,
1,UnsupervisedDense,2,n,nottarget,0.653,nottarget,contr4,8140,36,
1,UnsupervisedDense,2,x,target,0.585,target,test9,8140,37,
1,UnsupervisedDense,2,n,nottarget,0.568,nottarget,contr12,8140,38,
1,UnsupervisedDense,2,x,target,0.662,target,test11,8140,39,
1,UnsupervisedDense,2,n,nottarget,0.625,nottarget,contr16,8140,40,
1,UnsupervisedSparse,3,n,nottarget,1.726,nottarget,contr14,8140,1,
1,UnsupervisedSparse,3,x,target,0.997,target,test15,8140,2,
1,UnsupervisedSparse,3,n,nottarget,0.731,nottarget,contr16,8140,3,
1,UnsupervisedSparse,3,x,target,0.8009999999999999,target,test10,8140,4,
1,UnsupervisedSparse,3,x,target,0.7120000000000001,target,test3,8140,5,
1,UnsupervisedSparse,3,x,target,0.8170000000000001,target,test13,8140,6,
1,UnsupervisedSparse,3,x,target,0.716,target,test9,8140,7,
1,UnsupervisedSparse,3,n,nottarget,0.797,nottarget,contr11,8140,8,
1,UnsupervisedSparse,3,n,nottarget,0.795,nottarget,catch4,8140,9,
1,UnsupervisedSparse,3,n,nottarget,0.9690000000000001,nottarget,contr2,8140,10,
1,UnsupervisedSparse,3,n,nottarget,0.607,nottarget,contr9,8140,11,
1,UnsupervisedSparse,3,x,target,0.635,target,test6,8140,12,
1,UnsupervisedSparse,3,n,nottarget,0.679,nottarget,catch7,8140,13,
1,UnsupervisedSparse,3,x,target,0.978,target,test1,8140,14,
0,UnsupervisedSparse,3,x,target,0.735,nottarget,catch5,8140,15,
1,UnsupervisedSparse,3,n,nottarget,1.047,nottarget,contr6,8140,16,
1,UnsupervisedSparse,3,n,nottarget,0.7070000000000001,nottarget,catch3,8140,17,
1,UnsupervisedSparse,3,n,nottarget,0.691,nottarget,contr8,8140,18,
1,UnsupervisedSparse,3,n,nottarget,0.654,nottarget,contr10,8140,19,
1,UnsupervisedSparse,3,n,nottarget,0.985,nottarget,contr5,8140,20,
1,UnsupervisedSparse,3,n,nottarget,0.598,nottarget,contr13,8140,21,
1,UnsupervisedSparse,3,n,nottarget,0.733,nottarget,catch1,8140,22,
1,UnsupervisedSparse,3,n,nottarget,0.755,nottarget,contr15,8140,23,
1,UnsupervisedSparse,3,n,nottarget,0.731,nottarget,catch2,8140,24,
1,UnsupervisedSparse,3,x,target,0.828,target,test14,8140,25,
1,UnsupervisedSparse,3,n,nottarget,0.5820000000000001,nottarget,contr12,8140,26,
1,UnsupervisedSparse,3,x,target,0.8059999999999999,target,test16,8140,27,
1,UnsupervisedSparse,3,x,target,0.8270000000000001,target,test4,8140,28,
1,UnsupervisedSparse,3,x,target,0.71,target,test2,8140,29,
1,UnsupervisedSparse,3,x,target,0.631,target,test12,8140,30,
1,UnsupervisedSparse,3,x,target,1.22,target,test7,8140,31,
1,UnsupervisedSparse,3,n,nottarget,0.943,nottarget,contr7,8140,32,
1,UnsupervisedSparse,3,n,nottarget,0.912,nottarget,contr4,8140,33,
1,UnsupervisedSparse,3,n,nottarget,0.551,nottarget,contr1,8140,34,
1,UnsupervisedSparse,3,n,nottarget,0.6859999999999999,nottarget,catch8,8140,35,
1,UnsupervisedSparse,3,x,target,1.025,target,test8,8140,36,
1,UnsupervisedSparse,3,n,nottarget,0.708,nottarget,contr3,8140,37,
1,UnsupervisedSparse,3,x,target,1.126,target,test11,8140,38,
1,UnsupervisedSparse,3,n,nottarget,0.645,nottarget,catch6,8140,39,
1,UnsupervisedSparse,3,x,target,0.7440000000000001,target,test5,8140,40,
1,SupervisedSparse,4,x,target,1.849,target,test7,8140,1,
1,SupervisedSparse,4,n,nottarget,1.133,nottarget,contr11,8140,2,
1,SupervisedSparse,4,x,target,0.6920000000000001,target,test14,8140,3,
1,SupervisedSparse,4,x,target,0.71,target,test9,8140,4,
1,SupervisedSparse,4,x,target,0.583,target,test3,8140,5,
1,SupervisedSparse,4,x,target,0.9309999999999999,target,test12,8140,6,
1,SupervisedSparse,4,x,target,0.764,target,test4,8140,7,
1,SupervisedSparse,4,n,nottarget,0.556,nottarget,contr14,8140,8,
1,SupervisedSparse,4,n,nottarget,0.506,nottarget,catch1,8140,9,
0,SupervisedSparse,4,x,target,0.915,nottarget,contr10,8140,10,
1,SupervisedSparse,4,n,nottarget,0.6679999999999999,nottarget,contr7,8140,11,
1,SupervisedSparse,4,x,target,2.421,target,test6,8140,12,
1,SupervisedSparse,4,n,nottarget,0.682,nottarget,catch3,8140,13,
1,SupervisedSparse,4,n,nottarget,0.764,nottarget,contr8,8140,14,
1,SupervisedSparse,4,x,target,0.818,target,test15,8140,15,
1,SupervisedSparse,4,x,target,0.573,target,test2,8140,16,
1,SupervisedSparse,4,n,nottarget,0.564,nottarget,catch5,8140,17,
1,SupervisedSparse,4,n,nottarget,0.747,nottarget,contr15,8140,18,
1,SupervisedSparse,4,n,nottarget,0.562,nottarget,contr4,8140,19,
1,SupervisedSparse,4,x,target,0.528,target,test10,8140,20,
1,SupervisedSparse,4,n,nottarget,0.536,nottarget,contr13,8140,21,
1,SupervisedSparse,4,x,target,0.48,target,test1,8140,22,
1,SupervisedSparse,4,x,target,0.505,target,test8,8140,23,
1,SupervisedSparse,4,n,nottarget,0.547,nottarget,catch8,8140,24,
1,SupervisedSparse,4,n,nottarget,0.61,nottarget,contr2,8140,25,
1,SupervisedSparse,4,x,target,0.495,target,test13,8140,26,
1,SupervisedSparse,4,x,target,0.504,target,test11,8140,27,
1,SupervisedSparse,4,n,nottarget,0.49,nottarget,catch7,8140,28,
1,SupervisedSparse,4,n,nottarget,0.586,nottarget,contr1,8140,29,
1,SupervisedSparse,4,x,target,0.521,target,test5,8140,30,
1,SupervisedSparse,4,n,nottarget,0.433,nottarget,contr3,8140,31,
1,SupervisedSparse,4,n,nottarget,0.389,nottarget,contr16,8140,32,
1,SupervisedSparse,4,n,nottarget,0.379,nottarget,contr6,8140,33,
1,SupervisedSparse,4,n,nottarget,0.36200000000000004,nottarget,contr9,8140,34,
1,SupervisedSparse,4,n,nottarget,0.495,nottarget,catch6,8140,35,
1,SupervisedSparse,4,n,nottarget,0.36200000000000004,nottarget,catch2,8140,36,
0,SupervisedSparse,4,n,nottarget,0.35200000000000004,target,test16,8140,37,
1,SupervisedSparse,4,n,nottarget,0.503,nottarget,catch4,8140,38,
1,SupervisedSparse,4,n,nottarget,0.529,nottarget,contr5,8140,39,
1,SupervisedSparse,4,n,nottarget,0.41600000000000004,nottarget,contr12,8140,40,
1,UnsupervisedDense,1,n,nottarget,1.6640000000000001,nottarget,catch5,8150,1,
1,UnsupervisedDense,1,x,target,1.3780000000000001,target,test13,8150,2,
1,UnsupervisedDense,1,n,nottarget,0.9440000000000001,nottarget,contr6,8150,3,
1,UnsupervisedDense,1,n,nottarget,0.958,nottarget,contr3,8150,4,
1,UnsupervisedDense,1,x,target,0.501,target,test4,8150,5,
1,UnsupervisedDense,1,x,target,0.853,target,test6,8150,6,
1,UnsupervisedDense,1,x,target,0.888,target,test9,8150,7,
1,UnsupervisedDense,1,x,target,1.185,target,test15,8150,8,
1,UnsupervisedDense,1,n,nottarget,0.7340000000000001,nottarget,catch1,8150,9,
1,UnsupervisedDense,1,n,nottarget,1.4240000000000002,nottarget,contr4,8150,10,
1,UnsupervisedDense,1,n,nottarget,0.9790000000000001,nottarget,contr16,8150,11,
1,UnsupervisedDense,1,n,nottarget,1.0959999999999999,nottarget,contr14,8150,12,
1,UnsupervisedDense,1,n,nottarget,1.218,nottarget,contr7,8150,13,
1,UnsupervisedDense,1,x,target,0.884,target,test2,8150,14,
1,UnsupervisedDense,1,x,target,0.831,target,test10,8150,15,
1,UnsupervisedDense,1,x,target,0.922,target,test1,8150,16,
1,UnsupervisedDense,1,n,nottarget,0.6659999999999999,nottarget,catch8,8150,17,
1,UnsupervisedDense,1,x,target,0.758,target,test5,8150,18,
1,UnsupervisedDense,1,x,target,0.74,target,test11,8150,19,
1,UnsupervisedDense,1,n,nottarget,0.484,nottarget,catch4,8150,20,
1,UnsupervisedDense,1,n,nottarget,0.7659999999999999,nottarget,catch7,8150,21,
1,UnsupervisedDense,1,n,nottarget,1.156,nottarget,contr8,8150,22,
1,UnsupervisedDense,1,x,target,1.147,target,test14,8150,23,
1,UnsupervisedDense,1,n,nottarget,0.769,nottarget,contr9,8150,24,
1,UnsupervisedDense,1,x,target,0.935,target,test3,8150,25,
1,UnsupervisedDense,1,n,nottarget,0.711,nottarget,contr5,8150,26,
1,UnsupervisedDense,1,n,nottarget,1.143,nottarget,contr13,8150,27,
1,UnsupervisedDense,1,n,nottarget,0.495,nottarget,contr11,8150,28,
1,UnsupervisedDense,1,n,nottarget,0.377,nottarget,contr15,8150,29,
1,UnsupervisedDense,1,x,target,0.63,target,test8,8150,30,
1,UnsupervisedDense,1,x,target,0.65,target,test16,8150,31,
1,UnsupervisedDense,1,n,nottarget,0.526,nottarget,catch6,8150,32,
1,UnsupervisedDense,1,n,nottarget,1.173,nottarget,contr10,8150,33,
1,UnsupervisedDense,1,x,target,0.597,target,test12,8150,34,
1,UnsupervisedDense,1,n,nottarget,0.9359999999999999,nottarget,contr12,8150,35,
1,UnsupervisedDense,1,n,nottarget,0.496,nottarget,contr2,8150,36,
1,UnsupervisedDense,1,n,nottarget,0.883,nottarget,catch2,8150,37,
1,UnsupervisedDense,1,n,nottarget,0.626,nottarget,contr1,8150,38,
1,UnsupervisedDense,1,x,target,0.6709999999999999,target,test7,8150,39,
1,UnsupervisedDense,1,n,nottarget,0.5870000000000001,nottarget,catch3,8150,40,
1,SupervisedSparse,2,x,target,2.595,target,test8,8150,1,
1,SupervisedSparse,2,n,nottarget,1.265,nottarget,catch4,8150,2,
0,SupervisedSparse,2,x,target,1.97,nottarget,contr7,8150,3,
1,SupervisedSparse,2,n,nottarget,0.865,nottarget,contr12,8150,4,
1,SupervisedSparse,2,n,nottarget,0.8109999999999999,nottarget,contr9,8150,5,
1,SupervisedSparse,2,x,target,1.008,target,test7,8150,6,
1,SupervisedSparse,2,x,target,0.8440000000000001,target,test11,8150,7,
1,SupervisedSparse,2,n,nottarget,0.84,nottarget,contr10,8150,8,
1,SupervisedSparse,2,n,nottarget,0.6829999999999999,nottarget,contr3,8150,9,
1,SupervisedSparse,2,x,target,0.797,target,test5,8150,10,
1,SupervisedSparse,2,n,nottarget,0.715,nottarget,catch7,8150,11,
1,SupervisedSparse,2,n,nottarget,0.8740000000000001,nottarget,contr8,8150,12,
1,SupervisedSparse,2,n,nottarget,0.419,nottarget,contr14,8150,13,
1,SupervisedSparse,2,n,nottarget,0.537,nottarget,contr2,8150,14,
1,SupervisedSparse,2,n,nottarget,0.698,nottarget,catch2,8150,15,
1,SupervisedSparse,2,x,target,0.529,target,test14,8150,16,
1,SupervisedSparse,2,n,nottarget,0.9540000000000001,nottarget,contr4,8150,17,
1,SupervisedSparse,2,x,target,1.626,target,test13,8150,18,
1,SupervisedSparse,2,x,target,0.605,target,test3,8150,19,
1,SupervisedSparse,2,n,nottarget,0.682,nottarget,contr13,8150,20,
1,SupervisedSparse,2,x,target,1.003,target,test9,8150,21,
1,SupervisedSparse,2,x,target,0.745,target,test4,8150,22,
1,SupervisedSparse,2,n,nottarget,0.625,nottarget,catch6,8150,23,
1,SupervisedSparse,2,n,nottarget,1.6440000000000001,nottarget,contr1,8150,24,
1,SupervisedSparse,2,x,target,0.536,target,test12,8150,25,
1,SupervisedSparse,2,x,target,1.3030000000000002,target,test15,8150,26,
1,SupervisedSparse,2,n,nottarget,0.7759999999999999,nottarget,contr5,8150,27,
1,SupervisedSparse,2,x,target,0.631,target,test16,8150,28,
1,SupervisedSparse,2,n,nottarget,1.274,nottarget,contr6,8150,29,
1,SupervisedSparse,2,n,nottarget,0.5489999999999999,nottarget,contr16,8150,30,
1,SupervisedSparse,2,x,target,0.531,target,test2,8150,31,
1,SupervisedSparse,2,n,nottarget,0.812,nottarget,catch8,8150,32,
1,SupervisedSparse,2,n,nottarget,0.5379999999999999,nottarget,catch1,8150,33,
1,SupervisedSparse,2,x,target,1.4480000000000002,target,test6,8150,34,
1,SupervisedSparse,2,n,nottarget,0.596,nottarget,catch5,8150,35,
1,SupervisedSparse,2,n,nottarget,0.57,nottarget,catch3,8150,36,
1,SupervisedSparse,2,n,nottarget,1.4,nottarget,contr15,8150,37,
1,SupervisedSparse,2,x,target,0.518,target,test10,8150,38,
1,SupervisedSparse,2,n,nottarget,1.4140000000000001,nottarget,contr11,8150,39,
1,SupervisedSparse,2,x,target,1.3619999999999999,target,test1,8150,40,
0,UnsupervisedSparse,3,x,target,1.406,nottarget,contr10,8150,1,
1,UnsupervisedSparse,3,x,target,0.98,target,test5,8150,2,
0,UnsupervisedSparse,3,x,target,0.625,nottarget,contr7,8150,3,
0,UnsupervisedSparse,3,x,target,1.038,nottarget,contr12,8150,4,
1,UnsupervisedSparse,3,n,nottarget,2.0580000000000003,nottarget,contr2,8150,5,
1,UnsupervisedSparse,3,x,target,1.2830000000000001,target,test9,8150,6,
1,UnsupervisedSparse,3,x,target,0.91,target,test3,8150,7,
1,UnsupervisedSparse,3,n,nottarget,1.1740000000000002,nottarget,catch1,8150,8,
1,UnsupervisedSparse,3,n,nottarget,0.948,nottarget,catch7,8150,9,
1,UnsupervisedSparse,3,x,target,0.635,target,test16,8150,10,
1,UnsupervisedSparse,3,x,target,1.015,target,test6,8150,11,
1,UnsupervisedSparse,3,x,target,0.628,target,test13,8150,12,
1,UnsupervisedSparse,3,x,target,0.743,target,test12,8150,13,
1,UnsupervisedSparse,3,n,nottarget,1.7830000000000001,nottarget,contr9,8150,14,
1,UnsupervisedSparse,3,n,nottarget,1.636,nottarget,contr1,8150,15,
0,UnsupervisedSparse,3,x,target,1.696,nottarget,contr13,8150,16,
1,UnsupervisedSparse,3,x,target,0.745,target,test2,8150,17,
0,UnsupervisedSparse,3,x,target,0.425,nottarget,contr8,8150,18,
0,UnsupervisedSparse,3,x,target,0.405,nottarget,contr15,8150,19,
0,UnsupervisedSparse,3,x,target,0.586,nottarget,contr5,8150,20,
0,UnsupervisedSparse,3,x,target,0.48100000000000004,nottarget,contr4,8150,21,
0,UnsupervisedSparse,3,x,target,0.33899999999999997,nottarget,contr16,8150,22,
1,UnsupervisedSparse,3,x,target,0.682,target,test11,8150,23,
0,UnsupervisedSparse,3,x,target,0.773,nottarget,contr11,8150,24,
1,UnsupervisedSparse,3,x,target,1.899,target,test4,8150,25,
1,UnsupervisedSparse,3,x,target,0.74,target,test14,8150,26,
1,UnsupervisedSparse,3,n,nottarget,0.723,nottarget,catch2,8150,27,
1,UnsupervisedSparse,3,n,nottarget,0.618,nottarget,catch6,8150,28,
1,UnsupervisedSparse,3,n,nottarget,0.632,nottarget,catch5,8150,29,
1,UnsupervisedSparse,3,n,nottarget,0.7170000000000001,nottarget,catch8,8150,30,
0,UnsupervisedSparse,3,n,nottarget,0.516,target,test8,8150,31,
1,UnsupervisedSparse,3,x,target,0.485,target,test15,8150,32,
0,UnsupervisedSparse,3,x,target,0.664,nottarget,contr6,8150,33,
0,UnsupervisedSparse,3,x,target,0.425,nottarget,contr14,8150,34,
1,UnsupervisedSparse,3,n,nottarget,0.5670000000000001,nottarget,catch4,8150,35,
1,UnsupervisedSparse,3,n,nottarget,0.9009999999999999,nottarget,catch3,8150,36,
1,UnsupervisedSparse,3,x,target,0.7809999999999999,target,test1,8150,37,
1,UnsupervisedSparse,3,x,target,0.653,target,test7,8150,38,
1,UnsupervisedSparse,3,x,target,0.47200000000000003,target,test10,8150,39,
0,UnsupervisedSparse,3,x,target,0.53,nottarget,contr3,8150,40,
1,SupervisedDense,4,x,target,3.884,target,test10,8150,1,
1,SupervisedDense,4,n,nottarget,1.197,nottarget,contr13,8150,2,
1,SupervisedDense,4,n,nottarget,0.993,nottarget,catch1,8150,3,
1,SupervisedDense,4,x,target,1.1179999999999999,target,test16,8150,4,
1,SupervisedDense,4,x,target,0.855,target,test6,8150,5,
1,SupervisedDense,4,n,nottarget,0.6659999999999999,nottarget,catch2,8150,6,
1,SupervisedDense,4,x,target,1.061,target,test13,8150,7,
1,SupervisedDense,4,n,nottarget,0.703,nottarget,contr3,8150,8,
1,SupervisedDense,4,n,nottarget,0.49700000000000005,nottarget,contr5,8150,9,
1,SupervisedDense,4,n,nottarget,0.6729999999999999,nottarget,catch6,8150,10,
1,SupervisedDense,4,x,target,0.74,target,test2,8150,11,
1,SupervisedDense,4,n,nottarget,0.563,nottarget,catch8,8150,12,
1,SupervisedDense,4,x,target,1.105,target,test5,8150,13,
1,SupervisedDense,4,n,nottarget,0.5539999999999999,nottarget,contr16,8150,14,
1,SupervisedDense,4,x,target,0.747,target,test3,8150,15,
1,SupervisedDense,4,x,target,0.594,target,test1,8150,16,
1,SupervisedDense,4,n,nottarget,0.495,nottarget,catch3,8150,17,
1,SupervisedDense,4,n,nottarget,0.72,nottarget,contr1,8150,18,
1,SupervisedDense,4,n,nottarget,0.5770000000000001,nottarget,contr7,8150,19,
1,SupervisedDense,4,n,nottarget,0.384,nottarget,contr12,8150,20,
1,SupervisedDense,4,n,nottarget,0.359,nottarget,contr6,8150,21,
1,SupervisedDense,4,n,nottarget,0.58,nottarget,catch4,8150,22,
1,SupervisedDense,4,x,target,0.41,target,test12,8150,23,
1,SupervisedDense,4,x,target,0.431,target,test9,8150,24,
1,SupervisedDense,4,x,target,0.45799999999999996,target,test11,8150,25,
1,SupervisedDense,4,n,nottarget,0.455,nottarget,catch7,8150,26,
1,SupervisedDense,4,n,nottarget,0.657,nottarget,contr2,8150,27,
1,SupervisedDense,4,n,nottarget,0.478,nottarget,contr11,8150,28,
1,SupervisedDense,4,x,target,0.414,target,test14,8150,29,
1,SupervisedDense,4,x,target,0.57,target,test7,8150,30,
1,SupervisedDense,4,n,nottarget,0.5379999999999999,nottarget,contr10,8150,31,
1,SupervisedDense,4,n,nottarget,0.465,nottarget,contr4,8150,32,
1,SupervisedDense,4,n,nottarget,0.49200000000000005,nottarget,contr8,8150,33,
1,SupervisedDense,4,n,nottarget,0.598,nottarget,catch5,8150,34,
1,SupervisedDense,4,n,nottarget,0.57,nottarget,contr15,8150,35,
1,SupervisedDense,4,n,nottarget,0.57,nottarget,contr9,8150,36,
1,SupervisedDense,4,n,nottarget,0.44,nottarget,contr14,8150,37,
1,SupervisedDense,4,x,target,0.452,target,test4,8150,38,
1,SupervisedDense,4,x,target,0.46299999999999997,target,test15,8150,39,
1,SupervisedDense,4,x,target,0.48200000000000004,target,test8,8150,40,
1,SupervisedDense,1,n,nottarget,1.63,nottarget,contr6,8091,1,
1,SupervisedDense,1,n,nottarget,1.33,nottarget,contr5,8091,2,
1,SupervisedDense,1,n,nottarget,0.754,nottarget,contr2,8091,3,
1,SupervisedDense,1,n,nottarget,1.4580000000000002,nottarget,catch2,8091,4,
1,SupervisedDense,1,x,target,1.2830000000000001,target,test9,8091,5,
1,SupervisedDense,1,x,target,0.66,target,test10,8091,6,
1,SupervisedDense,1,n,nottarget,0.56,nottarget,contr1,8091,7,
1,SupervisedDense,1,n,nottarget,0.382,nottarget,contr11,8091,8,
1,SupervisedDense,1,n,nottarget,0.42100000000000004,nottarget,contr7,8091,9,
1,SupervisedDense,1,x,target,0.547,target,test16,8091,10,
1,SupervisedDense,1,x,target,0.777,target,test13,8091,11,
1,SupervisedDense,1,x,target,0.446,target,test15,8091,12,
1,SupervisedDense,1,n,nottarget,0.603,nottarget,catch6,8091,13,
1,SupervisedDense,1,n,nottarget,0.583,nottarget,contr16,8091,14,
1,SupervisedDense,1,n,nottarget,0.43700000000000006,nottarget,catch5,8091,15,
1,SupervisedDense,1,n,nottarget,0.37,nottarget,contr12,8091,16,
1,SupervisedDense,1,n,nottarget,0.369,nottarget,contr13,8091,17,
1,SupervisedDense,1,x,target,0.7190000000000001,target,test8,8091,18,
1,SupervisedDense,1,n,nottarget,0.8809999999999999,nottarget,contr14,8091,19,
1,SupervisedDense,1,n,nottarget,0.442,nottarget,catch3,8091,20,
1,SupervisedDense,1,n,nottarget,0.613,nottarget,contr10,8091,21,
1,SupervisedDense,1,x,target,0.5539999999999999,target,test7,8091,22,
1,SupervisedDense,1,n,nottarget,0.36,nottarget,contr3,8091,23,
1,SupervisedDense,1,x,target,1.0,target,test11,8091,24,
1,SupervisedDense,1,x,target,0.7979999999999999,target,test6,8091,25,
1,SupervisedDense,1,x,target,0.586,target,test12,8091,26,
1,SupervisedDense,1,x,target,0.46399999999999997,target,test1,8091,27,
1,SupervisedDense,1,n,nottarget,0.555,nottarget,contr15,8091,28,
1,SupervisedDense,1,x,target,0.665,target,test4,8091,29,
1,SupervisedDense,1,x,target,0.517,target,test14,8091,30,
1,SupervisedDense,1,x,target,0.397,target,test2,8091,31,
1,SupervisedDense,1,n,nottarget,0.442,nottarget,catch4,8091,32,
1,SupervisedDense,1,n,nottarget,0.43700000000000006,nottarget,catch1,8091,33,
1,SupervisedDense,1,n,nottarget,0.39299999999999996,nottarget,catch7,8091,34,
1,SupervisedDense,1,x,target,0.591,target,test5,8091,35,
1,SupervisedDense,1,x,target,0.5710000000000001,target,test3,8091,36,
1,SupervisedDense,1,n,nottarget,0.547,nottarget,contr4,8091,37,
1,SupervisedDense,1,n,nottarget,0.45799999999999996,nottarget,contr9,8091,38,
1,SupervisedDense,1,n,nottarget,0.40399999999999997,nottarget,catch8,8091,39,
1,SupervisedDense,1,n,nottarget,0.665,nottarget,contr8,8091,40,
1,SupervisedSparse,2,x,target,1.886,target,test9,8091,1,
1,SupervisedSparse,2,x,target,0.439,target,test15,8091,2,
1,SupervisedSparse,2,x,target,0.363,target,test8,8091,3,
1,SupervisedSparse,2,n,nottarget,0.435,nottarget,catch6,8091,4,
1,SupervisedSparse,2,n,nottarget,0.526,nottarget,catch5,8091,5,
0,SupervisedSparse,2,x,target,0.6779999999999999,nottarget,contr4,8091,6,
0,SupervisedSparse,2,x,target,0.696,nottarget,contr15,8091,7,
1,SupervisedSparse,2,x,target,0.408,target,test1,8091,8,
1,SupervisedSparse,2,x,target,0.389,target,test4,8091,9,
0,SupervisedSparse,2,x,target,0.0,nottarget,catch7,8091,10,
0,SupervisedSparse,2,x,target,0.753,nottarget,contr9,8091,11,
0,SupervisedSparse,2,x,target,0.609,nottarget,contr14,8091,12,
0,SupervisedSparse,2,x,target,0.39799999999999996,nottarget,contr7,8091,13,
0,SupervisedSparse,2,x,target,0.452,nottarget,contr8,8091,14,
1,SupervisedSparse,2,x,target,0.742,target,test7,8091,15,
1,SupervisedSparse,2,n,nottarget,0.893,nottarget,catch4,8091,16,
0,SupervisedSparse,2,x,target,0.6459999999999999,nottarget,contr16,8091,17,
1,SupervisedSparse,2,x,target,0.474,target,test14,8091,18,
1,SupervisedSparse,2,x,target,0.364,target,test12,8091,19,
1,SupervisedSparse,2,x,target,0.371,target,test3,8091,20,
0,SupervisedSparse,2,x,target,0.593,nottarget,contr11,8091,21,
0,SupervisedSparse,2,x,target,0.614,nottarget,contr12,8091,22,
0,SupervisedSparse,2,x,target,0.387,nottarget,contr1,8091,23,
1,SupervisedSparse,2,x,target,0.385,target,test2,8091,24,
0,SupervisedSparse,2,x,target,0.6629999999999999,nottarget,contr3,8091,25,
1,SupervisedSparse,2,x,target,0.8909999999999999,target,test13,8091,26,
1,SupervisedSparse,2,n,nottarget,0.531,nottarget,catch1,8091,27,
1,SupervisedSparse,2,n,nottarget,0.611,nottarget,catch8,8091,28,
0,SupervisedSparse,2,x,target,0.705,nottarget,contr2,8091,29,
1,SupervisedSparse,2,x,target,0.529,target,test11,8091,30,
1,SupervisedSparse,2,n,nottarget,0.61,nottarget,catch3,8091,31,
0,SupervisedSparse,2,x,target,0.503,nottarget,contr6,8091,32,
1,SupervisedSparse,2,x,target,0.615,target,test16,8091,33,
1,SupervisedSparse,2,x,target,0.644,target,test10,8091,34,
0,SupervisedSparse,2,x,target,0.664,nottarget,contr13,8091,35,
1,SupervisedSparse,2,x,target,0.5539999999999999,target,test5,8091,36,
0,SupervisedSparse,2,x,target,0.77,nottarget,contr5,8091,37,
1,SupervisedSparse,2,x,target,0.544,target,test6,8091,38,
0,SupervisedSparse,2,x,target,0.439,nottarget,contr10,8091,39,
1,SupervisedSparse,2,n,nottarget,0.563,nottarget,catch2,8091,40,
1,UnsupervisedSparse,3,n,nottarget,1.9369999999999998,nottarget,contr5,8091,1,
1,UnsupervisedSparse,3,n,nottarget,1.105,nottarget,contr11,8091,2,
1,UnsupervisedSparse,3,x,target,0.593,target,test13,8091,3,
1,UnsupervisedSparse,3,n,nottarget,1.208,nottarget,contr4,8091,4,
1,UnsupervisedSparse,3,n,nottarget,0.659,nottarget,catch6,8091,5,
1,UnsupervisedSparse,3,x,target,0.799,target,test12,8091,6,
1,UnsupervisedSparse,3,x,target,1.6030000000000002,target,test10,8091,7,
0,UnsupervisedSparse,3,x,target,1.072,nottarget,contr13,8091,8,
1,UnsupervisedSparse,3,n,nottarget,0.547,nottarget,catch2,8091,9,
0,UnsupervisedSparse,3,x,target,0.6729999999999999,nottarget,contr7,8091,10,
0,UnsupervisedSparse,3,x,target,0.652,nottarget,contr10,8091,11,
1,UnsupervisedSparse,3,n,nottarget,0.5429999999999999,nottarget,catch7,8091,12,
1,UnsupervisedSparse,3,n,nottarget,0.6459999999999999,nottarget,catch1,8091,13,
1,UnsupervisedSparse,3,n,nottarget,0.474,nottarget,catch8,8091,14,
1,UnsupervisedSparse,3,x,target,0.485,target,test4,8091,15,
1,UnsupervisedSparse,3,n,nottarget,0.446,nottarget,catch4,8091,16,
1,UnsupervisedSparse,3,x,target,0.5539999999999999,target,test2,8091,17,
1,UnsupervisedSparse,3,x,target,0.474,target,test11,8091,18,
1,UnsupervisedSparse,3,x,target,0.46,target,test3,8091,19,
0,UnsupervisedSparse,3,x,target,0.525,nottarget,contr14,8091,20,
0,UnsupervisedSparse,3,x,target,0.583,nottarget,contr9,8091,21,
1,UnsupervisedSparse,3,x,target,0.485,target,test6,8091,22,
0,UnsupervisedSparse,3,x,target,0.502,nottarget,contr2,8091,23,
1,UnsupervisedSparse,3,x,target,0.46399999999999997,target,test5,8091,24,
1,UnsupervisedSparse,3,x,target,0.45899999999999996,target,test1,8091,25,
1,UnsupervisedSparse,3,x,target,0.461,target,test7,8091,26,
1,UnsupervisedSparse,3,n,nottarget,0.688,nottarget,catch5,8091,27,
0,UnsupervisedSparse,3,x,target,0.562,nottarget,contr8,8091,28,
0,UnsupervisedSparse,3,x,target,0.64,nottarget,contr6,8091,29,
1,UnsupervisedSparse,3,x,target,0.532,target,test14,8091,30,
1,UnsupervisedSparse,3,x,target,0.645,target,test15,8091,31,
1,UnsupervisedSparse,3,x,target,0.488,target,test9,8091,32,
0,UnsupervisedSparse,3,x,target,0.418,nottarget,contr12,8091,33,
0,UnsupervisedSparse,3,x,target,0.391,nottarget,contr3,8091,34,
1,UnsupervisedSparse,3,x,target,0.419,target,test16,8091,35,
0,UnsupervisedSparse,3,x,target,0.4,nottarget,contr15,8091,36,
0,UnsupervisedSparse,3,x,target,0.406,nottarget,contr16,8091,37,
1,UnsupervisedSparse,3,n,nottarget,0.875,nottarget,catch3,8091,38,
0,UnsupervisedSparse,3,x,target,0.55,nottarget,contr1,8091,39,
1,UnsupervisedSparse,3,x,target,0.956,target,test8,8091,40,
1,UnsupervisedDense,4,n,nottarget,1.089,nottarget,contr1,8091,1,
1,UnsupervisedDense,4,x,target,0.585,target,test9,8091,2,
1,UnsupervisedDense,4,n,nottarget,0.5589999999999999,nottarget,catch2,8091,3,
1,UnsupervisedDense,4,x,target,0.5329999999999999,target,test6,8091,4,
1,UnsupervisedDense,4,x,target,0.485,target,test10,8091,5,
1,UnsupervisedDense,4,n,nottarget,0.5670000000000001,nottarget,contr6,8091,6,
1,UnsupervisedDense,4,n,nottarget,0.6459999999999999,nottarget,contr4,8091,7,
1,UnsupervisedDense,4,n,nottarget,0.401,nottarget,contr2,8091,8,
0,UnsupervisedDense,4,n,nottarget,0.43,target,test5,8091,9,
1,UnsupervisedDense,4,x,target,0.48200000000000004,target,test1,8091,10,
1,UnsupervisedDense,4,n,nottarget,0.523,nottarget,catch8,8091,11,
1,UnsupervisedDense,4,x,target,0.851,target,test7,8091,12,
1,UnsupervisedDense,4,x,target,0.496,target,test16,8091,13,
1,UnsupervisedDense,4,x,target,0.462,target,test14,8091,14,
1,UnsupervisedDense,4,x,target,0.41,target,test8,8091,15,
1,UnsupervisedDense,4,x,target,0.39,target,test11,8091,16,
1,UnsupervisedDense,4,n,nottarget,0.682,nottarget,catch4,8091,17,
1,UnsupervisedDense,4,n,nottarget,0.733,nottarget,contr16,8091,18,
1,UnsupervisedDense,4,n,nottarget,0.7170000000000001,nottarget,contr15,8091,19,
1,UnsupervisedDense,4,n,nottarget,0.565,nottarget,catch3,8091,20,
1,UnsupervisedDense,4,n,nottarget,0.46799999999999997,nottarget,contr12,8091,21,
1,UnsupervisedDense,4,n,nottarget,0.439,nottarget,contr10,8091,22,
1,UnsupervisedDense,4,n,nottarget,0.39399999999999996,nottarget,contr8,8091,23,
1,UnsupervisedDense,4,n,nottarget,0.528,nottarget,catch1,8091,24,
1,UnsupervisedDense,4,x,target,0.5429999999999999,target,test2,8091,25,
1,UnsupervisedDense,4,x,target,0.605,target,test15,8091,26,
1,UnsupervisedDense,4,n,nottarget,0.8029999999999999,nottarget,contr13,8091,27,
1,UnsupervisedDense,4,n,nottarget,0.713,nottarget,contr11,8091,28,
1,UnsupervisedDense,4,n,nottarget,0.648,nottarget,catch5,8091,29,
1,UnsupervisedDense,4,n,nottarget,0.46,nottarget,contr9,8091,30,
1,UnsupervisedDense,4,x,target,0.527,target,test3,8091,31,
1,UnsupervisedDense,4,n,nottarget,0.654,nottarget,catch6,8091,32,
1,UnsupervisedDense,4,x,target,0.8420000000000001,target,test4,8091,33,
1,UnsupervisedDense,4,n,nottarget,0.645,nottarget,contr3,8091,34,
1,UnsupervisedDense,4,n,nottarget,0.831,nottarget,catch7,8091,35,
1,UnsupervisedDense,4,x,target,0.596,target,test13,8091,36,
1,UnsupervisedDense,4,n,nottarget,0.5539999999999999,nottarget,contr5,8091,37,
1,UnsupervisedDense,4,n,nottarget,0.848,nottarget,contr14,8091,38,
1,UnsupervisedDense,4,x,target,0.7070000000000001,target,test12,8091,39,
1,UnsupervisedDense,4,n,nottarget,0.532,nottarget,contr7,8091,40,
1,UnsupervisedSparse,1,x,target,2.265,target,test5,8123,1,
0,UnsupervisedSparse,1,x,target,1.771,nottarget,contr4,8123,2,
1,UnsupervisedSparse,1,x,target,2.843,target,test8,8123,3,
1,UnsupervisedSparse,1,n,nottarget,1.74,nottarget,contr5,8123,4,
0,UnsupervisedSparse,1,x,target,1.194,nottarget,contr2,8123,5,
1,UnsupervisedSparse,1,n,nottarget,1.2329999999999999,nottarget,catch4,8123,6,
1,UnsupervisedSparse,1,n,nottarget,1.092,nottarget,catch3,8123,7,
0,UnsupervisedSparse,1,x,target,0.909,nottarget,contr10,8123,8,
1,UnsupervisedSparse,1,x,target,0.534,target,test3,8123,9,
1,UnsupervisedSparse,1,n,nottarget,0.741,nottarget,catch2,8123,10,
0,UnsupervisedSparse,1,x,target,0.693,nottarget,contr16,8123,11,
1,UnsupervisedSparse,1,x,target,0.727,target,test10,8123,12,
1,UnsupervisedSparse,1,n,nottarget,0.598,nottarget,catch7,8123,13,
1,UnsupervisedSparse,1,x,target,0.612,target,test11,8123,14,
1,UnsupervisedSparse,1,x,target,0.49700000000000005,target,test4,8123,15,
0,UnsupervisedSparse,1,x,target,0.682,nottarget,contr8,8123,16,
1,UnsupervisedSparse,1,x,target,0.45299999999999996,target,test7,8123,17,
0,UnsupervisedSparse,1,x,target,0.449,nottarget,contr7,8123,18,
1,UnsupervisedSparse,1,n,nottarget,0.6509999999999999,nottarget,catch1,8123,19,
0,UnsupervisedSparse,1,x,target,0.527,nottarget,contr11,8123,20,
1,UnsupervisedSparse,1,n,nottarget,0.551,nottarget,catch8,8123,21,
1,UnsupervisedSparse,1,x,target,0.638,target,test1,8123,22,
1,UnsupervisedSparse,1,x,target,0.579,target,test9,8123,23,
0,UnsupervisedSparse,1,x,target,0.521,nottarget,contr6,8123,24,
1,UnsupervisedSparse,1,x,target,0.5770000000000001,target,test16,8123,25,
1,UnsupervisedSparse,1,n,nottarget,0.696,nottarget,catch6,8123,26,
0,UnsupervisedSparse,1,x,target,2.818,nottarget,contr1,8123,27,
0,UnsupervisedSparse,1,x,target,1.3259999999999998,nottarget,contr9,8123,28,
1,UnsupervisedSparse,1,x,target,0.7240000000000001,target,test13,8123,29,
0,UnsupervisedSparse,1,x,target,0.7959999999999999,nottarget,contr15,8123,30,
0,UnsupervisedSparse,1,x,target,0.57,nottarget,contr14,8123,31,
0,UnsupervisedSparse,1,x,target,0.46399999999999997,nottarget,contr12,8123,32,
1,UnsupervisedSparse,1,x,target,0.539,target,test12,8123,33,
1,UnsupervisedSparse,1,x,target,0.8109999999999999,target,test6,8123,34,
1,UnsupervisedSparse,1,x,target,0.711,target,test2,8123,35,
0,UnsupervisedSparse,1,x,target,0.527,nottarget,contr3,8123,36,
1,UnsupervisedSparse,1,x,target,0.569,target,test15,8123,37,
1,UnsupervisedSparse,1,x,target,0.48700000000000004,target,test14,8123,38,
1,UnsupervisedSparse,1,n,nottarget,0.618,nottarget,catch5,8123,39,
0,UnsupervisedSparse,1,x,target,0.767,nottarget,contr13,8123,40,
1,UnsupervisedDense,2,x,target,1.7080000000000002,target,test2,8123,1,
0,UnsupervisedDense,2,None,None,9999.0,nottarget,contr4,8123,2,
1,UnsupervisedDense,2,x,target,0.7290000000000001,target,test7,8123,3,
0,UnsupervisedDense,2,x,target,1.335,nottarget,contr5,8123,4,
1,UnsupervisedDense,2,n,nottarget,1.048,nottarget,contr16,8123,5,
1,UnsupervisedDense,2,x,target,1.123,target,test12,8123,6,
1,UnsupervisedDense,2,n,nottarget,0.987,nottarget,contr6,8123,7,
1,UnsupervisedDense,2,n,nottarget,1.136,nottarget,catch1,8123,8,
1,UnsupervisedDense,2,x,target,0.6859999999999999,target,test16,8123,9,
0,UnsupervisedDense,2,x,target,0.65,nottarget,contr8,8123,10,
1,UnsupervisedDense,2,x,target,0.58,target,test10,8123,11,
1,UnsupervisedDense,2,x,target,0.696,target,test6,8123,12,
0,UnsupervisedDense,2,x,target,1.7790000000000001,nottarget,contr7,8123,13,
1,UnsupervisedDense,2,n,nottarget,0.607,nottarget,catch2,8123,14,
1,UnsupervisedDense,2,n,nottarget,0.6759999999999999,nottarget,catch7,8123,15,
0,UnsupervisedDense,2,x,target,0.7020000000000001,nottarget,contr2,8123,16,
1,UnsupervisedDense,2,n,nottarget,0.478,nottarget,catch3,8123,17,
1,UnsupervisedDense,2,x,target,0.608,target,test5,8123,18,
1,UnsupervisedDense,2,x,target,0.516,target,test14,8123,19,
1,UnsupervisedDense,2,n,nottarget,0.565,nottarget,catch6,8123,20,
1,UnsupervisedDense,2,n,nottarget,0.435,nottarget,catch8,8123,21,
1,UnsupervisedDense,2,n,nottarget,0.816,nottarget,catch5,8123,22,
1,UnsupervisedDense,2,x,target,0.6579999999999999,target,test1,8123,23,
1,UnsupervisedDense,2,n,nottarget,0.445,nottarget,catch4,8123,24,
0,UnsupervisedDense,2,x,target,1.7369999999999999,nottarget,contr10,8123,25,
0,UnsupervisedDense,2,x,target,0.6559999999999999,nottarget,contr15,8123,26,
1,UnsupervisedDense,2,x,target,0.738,target,test3,8123,27,
0,UnsupervisedDense,2,x,target,0.578,nottarget,contr14,8123,28,
0,UnsupervisedDense,2,x,target,0.759,nottarget,contr9,8123,29,
1,UnsupervisedDense,2,x,target,0.902,target,test8,8123,30,
0,UnsupervisedDense,2,x,target,0.382,nottarget,contr1,8123,31,
0,UnsupervisedDense,2,x,target,0.389,nottarget,contr13,8123,32,
1,UnsupervisedDense,2,x,target,0.691,target,test15,8123,33,
1,UnsupervisedDense,2,x,target,0.506,target,test13,8123,34,
1,UnsupervisedDense,2,x,target,0.419,target,test9,8123,35,
1,UnsupervisedDense,2,x,target,0.616,target,test11,8123,36,
0,UnsupervisedDense,2,x,target,0.379,nottarget,contr12,8123,37,
0,UnsupervisedDense,2,x,target,0.39399999999999996,nottarget,contr3,8123,38,
1,UnsupervisedDense,2,x,target,0.34299999999999997,target,test4,8123,39,
0,UnsupervisedDense,2,x,target,0.358,nottarget,contr11,8123,40,
1,SupervisedSparse,3,x,target,2.464,target,test6,8123,1,
1,SupervisedSparse,3,n,nottarget,1.01,nottarget,catch6,8123,2,
1,SupervisedSparse,3,n,nottarget,0.6940000000000001,nottarget,contr1,8123,3,
1,SupervisedSparse,3,n,nottarget,0.527,nottarget,contr4,8123,4,
1,SupervisedSparse,3,x,target,0.608,target,test13,8123,5,
1,SupervisedSparse,3,n,nottarget,0.6829999999999999,nottarget,contr12,8123,6,
1,SupervisedSparse,3,n,nottarget,0.47,nottarget,contr13,8123,7,
1,SupervisedSparse,3,x,target,0.585,target,test11,8123,8,
1,SupervisedSparse,3,x,target,0.488,target,test3,8123,9,
1,SupervisedSparse,3,x,target,0.6629999999999999,target,test15,8123,10,
1,SupervisedSparse,3,n,nottarget,0.506,nottarget,contr14,8123,11,
1,SupervisedSparse,3,n,nottarget,0.371,nottarget,contr8,8123,12,
1,SupervisedSparse,3,n,nottarget,0.6890000000000001,nottarget,catch3,8123,13,
1,SupervisedSparse,3,x,target,1.2590000000000001,target,test16,8123,14,
1,SupervisedSparse,3,n,nottarget,0.638,nottarget,catch2,8123,15,
1,SupervisedSparse,3,n,nottarget,0.7609999999999999,nottarget,contr3,8123,16,
1,SupervisedSparse,3,x,target,0.593,target,test14,8123,17,
1,SupervisedSparse,3,x,target,0.981,target,test4,8123,18,
1,SupervisedSparse,3,x,target,0.45899999999999996,target,test12,8123,19,
1,SupervisedSparse,3,n,nottarget,0.701,nottarget,contr6,8123,20,
1,SupervisedSparse,3,n,nottarget,0.623,nottarget,catch5,8123,21,
1,SupervisedSparse,3,x,target,0.8909999999999999,target,test7,8123,22,
1,SupervisedSparse,3,x,target,0.564,target,test10,8123,23,
1,SupervisedSparse,3,x,target,0.7859999999999999,target,test2,8123,24,
1,SupervisedSparse,3,n,nottarget,0.529,nottarget,catch1,8123,25,
1,SupervisedSparse,3,n,nottarget,0.945,nottarget,contr11,8123,26,
1,SupervisedSparse,3,n,nottarget,0.5920000000000001,nottarget,catch4,8123,27,
1,SupervisedSparse,3,n,nottarget,0.981,nottarget,contr2,8123,28,
1,SupervisedSparse,3,x,target,1.114,target,test5,8123,29,
1,SupervisedSparse,3,x,target,0.467,target,test8,8123,30,
1,SupervisedSparse,3,x,target,0.478,target,test1,8123,31,
1,SupervisedSparse,3,n,nottarget,0.527,nottarget,contr16,8123,32,
1,SupervisedSparse,3,n,nottarget,0.447,nottarget,contr7,8123,33,
1,SupervisedSparse,3,n,nottarget,0.386,nottarget,contr15,8123,34,
1,SupervisedSparse,3,n,nottarget,0.39299999999999996,nottarget,contr9,8123,35,
1,SupervisedSparse,3,n,nottarget,0.574,nottarget,catch8,8123,36,
1,SupervisedSparse,3,x,target,0.524,target,test9,8123,37,
1,SupervisedSparse,3,n,nottarget,0.46,nottarget,catch7,8123,38,
1,SupervisedSparse,3,n,nottarget,0.557,nottarget,contr10,8123,39,
1,SupervisedSparse,3,n,nottarget,0.396,nottarget,contr5,8123,40,
1,SupervisedDense,4,n,nottarget,2.34,nottarget,contr8,8123,1,
1,SupervisedDense,4,x,target,1.003,target,test9,8123,2,
1,SupervisedDense,4,x,target,0.823,target,test14,8123,3,
1,SupervisedDense,4,x,target,1.4509999999999998,target,test1,8123,4,
1,SupervisedDense,4,n,nottarget,0.8540000000000001,nottarget,contr15,8123,5,
1,SupervisedDense,4,x,target,0.9590000000000001,target,test2,8123,6,
1,SupervisedDense,4,x,target,0.7909999999999999,target,test16,8123,7,
1,SupervisedDense,4,n,nottarget,0.8290000000000001,nottarget,contr3,8123,8,
1,SupervisedDense,4,x,target,0.76,target,test10,8123,9,
1,SupervisedDense,4,n,nottarget,0.95,nottarget,catch2,8123,10,
1,SupervisedDense,4,x,target,1.157,target,test7,8123,11,
1,SupervisedDense,4,n,nottarget,0.643,nottarget,contr7,8123,12,
1,SupervisedDense,4,n,nottarget,0.615,nottarget,contr11,8123,13,
1,SupervisedDense,4,n,nottarget,0.706,nottarget,contr5,8123,14,
1,SupervisedDense,4,x,target,0.6659999999999999,target,test6,8123,15,
1,SupervisedDense,4,n,nottarget,1.061,nottarget,contr16,8123,16,
1,SupervisedDense,4,n,nottarget,0.847,nottarget,contr4,8123,17,
1,SupervisedDense,4,n,nottarget,0.45,nottarget,contr13,8123,18,
1,SupervisedDense,4,n,nottarget,0.42100000000000004,nottarget,contr6,8123,19,
1,SupervisedDense,4,n,nottarget,0.457,nottarget,contr1,8123,20,
1,SupervisedDense,4,n,nottarget,0.588,nottarget,catch7,8123,21,
1,SupervisedDense,4,x,target,0.768,target,test15,8123,22,
1,SupervisedDense,4,n,nottarget,0.519,nottarget,contr12,8123,23,
1,SupervisedDense,4,n,nottarget,0.687,nottarget,contr10,8123,24,
1,SupervisedDense,4,x,target,0.552,target,test3,8123,25,
1,SupervisedDense,4,n,nottarget,0.76,nottarget,contr2,8123,26,
1,SupervisedDense,4,n,nottarget,0.551,nottarget,catch8,8123,27,
1,SupervisedDense,4,n,nottarget,0.637,nottarget,catch6,8123,28,
1,SupervisedDense,4,x,target,0.865,target,test11,8123,29,
1,SupervisedDense,4,x,target,0.507,target,test4,8123,30,
1,SupervisedDense,4,x,target,0.506,target,test8,8123,31,
1,SupervisedDense,4,x,target,0.452,target,test13,8123,32,
1,SupervisedDense,4,n,nottarget,0.52,nottarget,contr14,8123,33,
1,SupervisedDense,4,n,nottarget,0.528,nottarget,catch1,8123,34,
1,SupervisedDense,4,n,nottarget,0.504,nottarget,contr9,8123,35,
1,SupervisedDense,4,n,nottarget,0.633,nottarget,catch5,8123,36,
1,SupervisedDense,4,x,target,0.638,target,test5,8123,37,
1,SupervisedDense,4,n,nottarget,0.561,nottarget,catch4,8123,38,
1,SupervisedDense,4,n,nottarget,0.415,nottarget,catch3,8123,39,
1,SupervisedDense,4,x,target,1.205,target,test12,8123,40,
0,SupervisedDense,1,None,None,9999.0,nottarget,catch4,8058,1,
1,SupervisedDense,1,n,nottarget,3.397,nottarget,contr5,8058,2,
1,SupervisedDense,1,x,target,2.61,target,test16,8058,3,
1,SupervisedDense,1,n,nottarget,1.31,nottarget,contr8,8058,4,
1,SupervisedDense,1,n,nottarget,0.605,nottarget,contr1,8058,5,
1,SupervisedDense,1,x,target,1.2819999999999998,target,test11,8058,6,
1,SupervisedDense,1,n,nottarget,0.773,nottarget,contr2,8058,7,
1,SupervisedDense,1,n,nottarget,0.6990000000000001,nottarget,catch7,8058,8,
1,SupervisedDense,1,n,nottarget,0.9079999999999999,nottarget,contr14,8058,9,
1,SupervisedDense,1,x,target,0.9309999999999999,target,test6,8058,10,
1,SupervisedDense,1,n,nottarget,0.619,nottarget,contr10,8058,11,
1,SupervisedDense,1,x,target,1.68,target,test3,8058,12,
1,SupervisedDense,1,n,nottarget,0.594,nottarget,contr7,8058,13,
1,SupervisedDense,1,x,target,1.319,target,test5,8058,14,
1,SupervisedDense,1,n,nottarget,0.63,nottarget,contr9,8058,15,
1,SupervisedDense,1,x,target,0.74,target,test1,8058,16,
1,SupervisedDense,1,n,nottarget,0.9390000000000001,nottarget,catch3,8058,17,
1,SupervisedDense,1,x,target,1.761,target,test10,8058,18,
1,SupervisedDense,1,x,target,0.872,target,test4,8058,19,
1,SupervisedDense,1,x,target,1.849,target,test2,8058,20,
1,SupervisedDense,1,x,target,1.901,target,test12,8058,21,
1,SupervisedDense,1,n,nottarget,0.9740000000000001,nottarget,contr13,8058,22,
0,SupervisedDense,1,n,nottarget,3.674,target,test7,8058,23,
0,SupervisedDense,1,n,nottarget,1.595,target,test14,8058,24,
1,SupervisedDense,1,n,nottarget,1.5590000000000002,nottarget,contr12,8058,25,
1,SupervisedDense,1,n,nottarget,2.285,nottarget,catch8,8058,26,
1,SupervisedDense,1,n,nottarget,0.951,nottarget,contr16,8058,27,
0,SupervisedDense,1,n,nottarget,3.4539999999999997,target,test15,8058,28,
1,SupervisedDense,1,n,nottarget,1.255,nottarget,contr15,8058,29,
1,SupervisedDense,1,n,nottarget,0.841,nottarget,catch2,8058,30,
1,SupervisedDense,1,x,target,1.189,target,test9,8058,31,
1,SupervisedDense,1,n,nottarget,0.778,nottarget,catch1,8058,32,
1,SupervisedDense,1,n,nottarget,0.792,nottarget,contr4,8058,33,
0,SupervisedDense,1,n,nottarget,2.2359999999999998,target,test8,8058,34,
1,SupervisedDense,1,x,target,1.3519999999999999,target,test13,8058,35,
1,SupervisedDense,1,n,nottarget,0.7340000000000001,nottarget,contr3,8058,36,
1,SupervisedDense,1,n,nottarget,0.743,nottarget,contr11,8058,37,
1,SupervisedDense,1,n,nottarget,0.615,nottarget,catch5,8058,38,
1,SupervisedDense,1,n,nottarget,1.715,nottarget,contr6,8058,39,
1,SupervisedDense,1,n,nottarget,0.555,nottarget,catch6,8058,40,
1,UnsupervisedDense,2,x,target,2.037,target,test7,8058,1,
1,UnsupervisedDense,2,n,nottarget,1.112,nottarget,contr4,8058,2,
1,UnsupervisedDense,2,x,target,2.1519999999999997,target,test5,8058,3,
1,UnsupervisedDense,2,n,nottarget,0.9259999999999999,nottarget,catch7,8058,4,
1,UnsupervisedDense,2,x,target,1.038,target,test16,8058,5,
1,UnsupervisedDense,2,x,target,1.13,target,test3,8058,6,
1,UnsupervisedDense,2,n,nottarget,0.568,nottarget,catch1,8058,7,
1,UnsupervisedDense,2,n,nottarget,0.7909999999999999,nottarget,contr12,8058,8,
1,UnsupervisedDense,2,n,nottarget,0.532,nottarget,contr13,8058,9,
1,UnsupervisedDense,2,n,nottarget,0.6509999999999999,nottarget,contr3,8058,10,
1,UnsupervisedDense,2,n,nottarget,0.502,nottarget,contr10,8058,11,
1,UnsupervisedDense,2,x,target,0.688,target,test15,8058,12,
1,UnsupervisedDense,2,x,target,0.625,target,test9,8058,13,
1,UnsupervisedDense,2,n,nottarget,0.557,nottarget,catch4,8058,14,
1,UnsupervisedDense,2,n,nottarget,0.387,nottarget,catch2,8058,15,
1,UnsupervisedDense,2,n,nottarget,0.631,nottarget,contr15,8058,16,
1,UnsupervisedDense,2,n,nottarget,0.531,nottarget,contr7,8058,17,
1,UnsupervisedDense,2,x,target,0.956,target,test13,8058,18,
1,UnsupervisedDense,2,n,nottarget,1.169,nottarget,catch6,8058,19,
1,UnsupervisedDense,2,n,nottarget,0.623,nottarget,contr16,8058,20,
1,UnsupervisedDense,2,x,target,0.754,target,test4,8058,21,
1,UnsupervisedDense,2,n,nottarget,0.746,nottarget,contr11,8058,22,
1,UnsupervisedDense,2,x,target,1.168,target,test10,8058,23,
1,UnsupervisedDense,2,n,nottarget,0.565,nottarget,catch3,8058,24,
1,UnsupervisedDense,2,n,nottarget,0.9079999999999999,nottarget,contr5,8058,25,
0,UnsupervisedDense,2,n,nottarget,0.499,target,test1,8058,26,
1,UnsupervisedDense,2,n,nottarget,0.597,nottarget,catch8,8058,27,
1,UnsupervisedDense,2,x,target,0.769,target,test2,8058,28,
1,UnsupervisedDense,2,n,nottarget,0.76,nottarget,contr8,8058,29,
1,UnsupervisedDense,2,x,target,0.8140000000000001,target,test8,8058,30,
1,UnsupervisedDense,2,n,nottarget,0.642,nottarget,catch5,8058,31,
1,UnsupervisedDense,2,n,nottarget,0.804,nottarget,contr2,8058,32,
1,UnsupervisedDense,2,n,nottarget,0.513,nottarget,contr14,8058,33,
1,UnsupervisedDense,2,n,nottarget,0.914,nottarget,contr1,8058,34,
1,UnsupervisedDense,2,x,target,1.3780000000000001,target,test12,8058,35,
1,UnsupervisedDense,2,x,target,0.8,target,test6,8058,36,
1,UnsupervisedDense,2,n,nottarget,0.677,nottarget,contr9,8058,37,
1,UnsupervisedDense,2,x,target,0.645,target,test11,8058,38,
1,UnsupervisedDense,2,x,target,0.6970000000000001,target,test14,8058,39,
1,UnsupervisedDense,2,n,nottarget,0.688,nottarget,contr6,8058,40,
1,SupervisedSparse,3,x,target,2.51,target,test12,8058,1,
1,SupervisedSparse,3,n,nottarget,0.79,nottarget,contr12,8058,2,
1,SupervisedSparse,3,x,target,1.78,target,test11,8058,3,
1,SupervisedSparse,3,x,target,0.872,target,test15,8058,4,
1,SupervisedSparse,3,n,nottarget,0.491,nottarget,contr5,8058,5,
1,SupervisedSparse,3,x,target,0.7,target,test8,8058,6,
1,SupervisedSparse,3,n,nottarget,0.597,nottarget,contr11,8058,7,
1,SupervisedSparse,3,n,nottarget,0.5870000000000001,nottarget,contr8,8058,8,
1,SupervisedSparse,3,n,nottarget,0.4,nottarget,contr6,8058,9,
1,SupervisedSparse,3,n,nottarget,0.35700000000000004,nottarget,contr14,8058,10,
1,SupervisedSparse,3,n,nottarget,1.083,nottarget,catch7,8058,11,
1,SupervisedSparse,3,n,nottarget,0.853,nottarget,contr16,8058,12,
1,SupervisedSparse,3,n,nottarget,0.441,nottarget,contr10,8058,13,
1,SupervisedSparse,3,n,nottarget,0.733,nottarget,catch1,8058,14,
1,SupervisedSparse,3,n,nottarget,0.452,nottarget,catch2,8058,15,
1,SupervisedSparse,3,n,nottarget,0.848,nottarget,contr15,8058,16,
1,SupervisedSparse,3,n,nottarget,0.507,nottarget,contr13,8058,17,
1,SupervisedSparse,3,x,target,0.618,target,test4,8058,18,
1,SupervisedSparse,3,n,nottarget,0.528,nottarget,contr4,8058,19,
1,SupervisedSparse,3,x,target,0.528,target,test2,8058,20,
1,SupervisedSparse,3,x,target,0.855,target,test10,8058,21,
1,SupervisedSparse,3,n,nottarget,0.523,nottarget,catch4,8058,22,
1,SupervisedSparse,3,x,target,0.81,target,test9,8058,23,
1,SupervisedSparse,3,x,target,0.6609999999999999,target,test1,8058,24,
1,SupervisedSparse,3,n,nottarget,0.41,nottarget,contr2,8058,25,
1,SupervisedSparse,3,x,target,1.2309999999999999,target,test6,8058,26,
1,SupervisedSparse,3,x,target,0.841,target,test3,8058,27,
1,SupervisedSparse,3,n,nottarget,0.605,nottarget,contr1,8058,28,
1,SupervisedSparse,3,n,nottarget,0.841,nottarget,catch8,8058,29,
1,SupervisedSparse,3,x,target,1.046,target,test13,8058,30,
1,SupervisedSparse,3,n,nottarget,0.753,nottarget,contr9,8058,31,
1,SupervisedSparse,3,x,target,0.743,target,test5,8058,32,
1,SupervisedSparse,3,x,target,0.711,target,test7,8058,33,
1,SupervisedSparse,3,n,nottarget,0.473,nottarget,catch3,8058,34,
1,SupervisedSparse,3,n,nottarget,0.465,nottarget,catch6,8058,35,
1,SupervisedSparse,3,n,nottarget,1.013,nottarget,contr7,8058,36,
1,SupervisedSparse,3,x,target,0.6579999999999999,target,test16,8058,37,
1,SupervisedSparse,3,n,nottarget,0.539,nottarget,catch5,8058,38,
1,SupervisedSparse,3,x,target,0.795,target,test14,8058,39,
1,SupervisedSparse,3,n,nottarget,0.583,nottarget,contr3,8058,40,
1,UnsupervisedSparse,4,n,nottarget,1.6480000000000001,nottarget,contr10,8058,1,
1,UnsupervisedSparse,4,x,target,1.0759999999999998,target,test2,8058,2,
1,UnsupervisedSparse,4,x,target,0.973,target,test13,8058,3,
0,UnsupervisedSparse,4,n,nottarget,2.324,target,test5,8058,4,
1,UnsupervisedSparse,4,n,nottarget,1.187,nottarget,catch4,8058,5,
1,UnsupervisedSparse,4,x,target,0.897,target,test1,8058,6,
1,UnsupervisedSparse,4,x,target,0.802,target,test4,8058,7,
1,UnsupervisedSparse,4,x,target,0.848,target,test3,8058,8,
1,UnsupervisedSparse,4,n,nottarget,1.46,nottarget,contr13,8058,9,
1,UnsupervisedSparse,4,n,nottarget,1.02,nottarget,contr2,8058,10,
1,UnsupervisedSparse,4,n,nottarget,0.986,nottarget,contr5,8058,11,
1,UnsupervisedSparse,4,n,nottarget,0.9670000000000001,nottarget,catch6,8058,12,
1,UnsupervisedSparse,4,n,nottarget,1.95,nottarget,contr8,8058,13,
1,UnsupervisedSparse,4,x,target,0.8370000000000001,target,test11,8058,14,
1,UnsupervisedSparse,4,n,nottarget,0.762,nottarget,catch7,8058,15,
1,UnsupervisedSparse,4,n,nottarget,0.865,nottarget,contr16,8058,16,
1,UnsupervisedSparse,4,n,nottarget,2.042,nottarget,contr1,8058,17,
1,UnsupervisedSparse,4,n,nottarget,1.6369999999999998,nottarget,contr15,8058,18,
1,UnsupervisedSparse,4,x,target,1.3119999999999998,target,test10,8058,19,
1,UnsupervisedSparse,4,n,nottarget,1.0979999999999999,nottarget,catch1,8058,20,
1,UnsupervisedSparse,4,n,nottarget,1.3459999999999999,nottarget,catch3,8058,21,
1,UnsupervisedSparse,4,n,nottarget,2.602,nottarget,contr14,8058,22,
1,UnsupervisedSparse,4,n,nottarget,1.27,nottarget,contr6,8058,23,
1,UnsupervisedSparse,4,n,nottarget,1.073,nottarget,catch5,8058,24,
1,UnsupervisedSparse,4,n,nottarget,2.7960000000000003,nottarget,contr7,8058,25,
1,UnsupervisedSparse,4,x,target,1.319,target,test8,8058,26,
1,UnsupervisedSparse,4,n,nottarget,0.937,nottarget,contr4,8058,27,
1,UnsupervisedSparse,4,n,nottarget,1.064,nottarget,catch8,8058,28,
1,UnsupervisedSparse,4,x,target,0.8029999999999999,target,test12,8058,29,
1,UnsupervisedSparse,4,x,target,0.657,target,test6,8058,30,
1,UnsupervisedSparse,4,n,nottarget,0.987,nottarget,contr11,8058,31,
1,UnsupervisedSparse,4,x,target,1.985,target,test15,8058,32,
1,UnsupervisedSparse,4,x,target,0.846,target,test9,8058,33,
1,UnsupervisedSparse,4,n,nottarget,0.882,nottarget,contr9,8058,34,
1,UnsupervisedSparse,4,x,target,0.924,target,test7,8058,35,
0,UnsupervisedSparse,4,n,nottarget,0.0,target,test14,8058,36,
1,UnsupervisedSparse,4,n,nottarget,3.986,nottarget,contr12,8058,37,
1,UnsupervisedSparse,4,n,nottarget,0.7340000000000001,nottarget,contr3,8058,38,
1,UnsupervisedSparse,4,x,target,2.407,target,test16,8058,39,
1,UnsupervisedSparse,4,n,nottarget,0.8909999999999999,nottarget,catch2,8058,40,
1,UnsupervisedSparse,1,n,nottarget,2.889,nottarget,contr3,8090,1,
0,UnsupervisedSparse,1,n,nottarget,2.8339999999999996,target,test5,8090,2,
1,UnsupervisedSparse,1,n,nottarget,1.3259999999999998,nottarget,contr4,8090,3,
1,UnsupervisedSparse,1,n,nottarget,1.189,nottarget,contr14,8090,4,
1,UnsupervisedSparse,1,n,nottarget,1.2590000000000001,nottarget,catch6,8090,5,
1,UnsupervisedSparse,1,n,nottarget,1.6840000000000002,nottarget,catch5,8090,6,
1,UnsupervisedSparse,1,x,target,0.91,target,test4,8090,7,
0,UnsupervisedSparse,1,x,target,2.966,nottarget,contr11,8090,8,
1,UnsupervisedSparse,1,x,target,0.8540000000000001,target,test7,8090,9,
1,UnsupervisedSparse,1,x,target,0.937,target,test13,8090,10,
1,UnsupervisedSparse,1,n,nottarget,1.993,nottarget,contr8,8090,11,
1,UnsupervisedSparse,1,n,nottarget,0.7090000000000001,nottarget,catch4,8090,12,
1,UnsupervisedSparse,1,n,nottarget,0.6609999999999999,nottarget,catch8,8090,13,
1,UnsupervisedSparse,1,x,target,0.856,target,test1,8090,14,
1,UnsupervisedSparse,1,x,target,0.748,target,test3,8090,15,
1,UnsupervisedSparse,1,x,target,0.635,target,test16,8090,16,
1,UnsupervisedSparse,1,x,target,0.83,target,test6,8090,17,
0,UnsupervisedSparse,1,None,None,9999.0,nottarget,contr13,8090,18,
1,UnsupervisedSparse,1,n,nottarget,1.127,nottarget,contr9,8090,19,
1,UnsupervisedSparse,1,n,nottarget,2.43,nottarget,contr1,8090,20,
1,UnsupervisedSparse,1,n,nottarget,2.93,nottarget,contr6,8090,21,
1,UnsupervisedSparse,1,x,target,2.481,target,test10,8090,22,
0,UnsupervisedSparse,1,x,target,4.019,nottarget,contr10,8090,23,
1,UnsupervisedSparse,1,n,nottarget,0.67,nottarget,catch1,8090,24,
0,UnsupervisedSparse,1,x,target,0.785,nottarget,contr7,8090,25,
0,UnsupervisedSparse,1,x,target,1.814,nottarget,contr15,8090,26,
1,UnsupervisedSparse,1,x,target,0.643,target,test11,8090,27,
1,UnsupervisedSparse,1,x,target,0.846,target,test8,8090,28,
1,UnsupervisedSparse,1,x,target,0.81,target,test9,8090,29,
1,UnsupervisedSparse,1,x,target,1.8780000000000001,target,test2,8090,30,
1,UnsupervisedSparse,1,n,nottarget,0.6,nottarget,catch7,8090,31,
1,UnsupervisedSparse,1,n,nottarget,0.397,nottarget,catch3,8090,32,
1,UnsupervisedSparse,1,x,target,0.428,target,test15,8090,33,
1,UnsupervisedSparse,1,x,target,1.079,target,test14,8090,34,
1,UnsupervisedSparse,1,n,nottarget,2.233,nottarget,catch2,8090,35,
1,UnsupervisedSparse,1,x,target,1.124,target,test12,8090,36,
0,UnsupervisedSparse,1,x,target,0.948,nottarget,contr2,8090,37,
0,UnsupervisedSparse,1,x,target,1.082,nottarget,contr12,8090,38,
0,UnsupervisedSparse,1,x,target,0.669,nottarget,contr5,8090,39,
0,UnsupervisedSparse,1,x,target,0.552,nottarget,contr16,8090,40,
1,SupervisedDense,2,n,nottarget,2.522,nottarget,contr11,8090,1,
1,SupervisedDense,2,x,target,1.298,target,test12,8090,2,
1,SupervisedDense,2,n,nottarget,0.539,nottarget,contr6,8090,3,
1,SupervisedDense,2,x,target,0.619,target,test13,8090,4,
1,SupervisedDense,2,n,nottarget,1.023,nottarget,catch7,8090,5,
1,SupervisedDense,2,n,nottarget,0.7,nottarget,contr14,8090,6,
1,SupervisedDense,2,n,nottarget,0.973,nottarget,contr15,8090,7,
1,SupervisedDense,2,n,nottarget,0.611,nottarget,contr10,8090,8,
1,SupervisedDense,2,x,target,0.7509999999999999,target,test10,8090,9,
1,SupervisedDense,2,n,nottarget,0.431,nottarget,contr9,8090,10,
1,SupervisedDense,2,n,nottarget,0.498,nottarget,contr1,8090,11,
1,SupervisedDense,2,n,nottarget,0.74,nottarget,catch8,8090,12,
1,SupervisedDense,2,x,target,0.6920000000000001,target,test2,8090,13,
1,SupervisedDense,2,n,nottarget,0.445,nottarget,contr12,8090,14,
1,SupervisedDense,2,x,target,0.48,target,test14,8090,15,
1,SupervisedDense,2,x,target,0.946,target,test15,8090,16,
1,SupervisedDense,2,x,target,0.6890000000000001,target,test3,8090,17,
1,SupervisedDense,2,n,nottarget,0.45,nottarget,contr13,8090,18,
1,SupervisedDense,2,n,nottarget,0.6859999999999999,nottarget,catch6,8090,19,
1,SupervisedDense,2,n,nottarget,0.7040000000000001,nottarget,catch2,8090,20,
1,SupervisedDense,2,n,nottarget,0.521,nottarget,catch5,8090,21,
1,SupervisedDense,2,x,target,0.5870000000000001,target,test11,8090,22,
1,SupervisedDense,2,n,nottarget,0.47200000000000003,nottarget,catch3,8090,23,
1,SupervisedDense,2,n,nottarget,0.8809999999999999,nottarget,contr16,8090,24,
1,SupervisedDense,2,x,target,0.98,target,test5,8090,25,
1,SupervisedDense,2,n,nottarget,2.01,nottarget,contr3,8090,26,
1,SupervisedDense,2,x,target,0.5579999999999999,target,test6,8090,27,
1,SupervisedDense,2,x,target,0.588,target,test9,8090,28,
1,SupervisedDense,2,n,nottarget,0.449,nottarget,contr8,8090,29,
1,SupervisedDense,2,n,nottarget,0.389,nottarget,contr2,8090,30,
1,SupervisedDense,2,x,target,0.466,target,test7,8090,31,
1,SupervisedDense,2,x,target,0.542,target,test1,8090,32,
1,SupervisedDense,2,n,nottarget,0.381,nottarget,contr4,8090,33,
1,SupervisedDense,2,x,target,0.42,target,test16,8090,34,
1,SupervisedDense,2,n,nottarget,0.5770000000000001,nottarget,contr5,8090,35,
1,SupervisedDense,2,x,target,0.573,target,test8,8090,36,
1,SupervisedDense,2,x,target,0.509,target,test4,8090,37,
1,SupervisedDense,2,n,nottarget,0.7020000000000001,nottarget,contr7,8090,38,
1,SupervisedDense,2,n,nottarget,0.525,nottarget,catch4,8090,39,
1,SupervisedDense,2,n,nottarget,0.614,nottarget,catch1,8090,40,
1,SupervisedSparse,3,n,nottarget,2.653,nottarget,contr5,8090,1,
1,SupervisedSparse,3,n,nottarget,0.48700000000000004,nottarget,contr13,8090,2,
1,SupervisedSparse,3,x,target,0.45799999999999996,target,test8,8090,3,
1,SupervisedSparse,3,x,target,0.524,target,test9,8090,4,
1,SupervisedSparse,3,x,target,1.0759999999999998,target,test4,8090,5,
1,SupervisedSparse,3,n,nottarget,0.51,nottarget,contr15,8090,6,
1,SupervisedSparse,3,n,nottarget,0.535,nottarget,catch5,8090,7,
1,SupervisedSparse,3,n,nottarget,0.455,nottarget,catch8,8090,8,
1,SupervisedSparse,3,n,nottarget,0.523,nottarget,catch6,8090,9,
1,SupervisedSparse,3,x,target,0.42700000000000005,target,test5,8090,10,
1,SupervisedSparse,3,x,target,0.63,target,test13,8090,11,
1,SupervisedSparse,3,n,nottarget,0.44299999999999995,nottarget,contr1,8090,12,
1,SupervisedSparse,3,x,target,0.654,target,test11,8090,13,
1,SupervisedSparse,3,n,nottarget,0.953,nottarget,contr11,8090,14,
1,SupervisedSparse,3,n,nottarget,0.904,nottarget,contr6,8090,15,
1,SupervisedSparse,3,x,target,0.762,target,test6,8090,16,
1,SupervisedSparse,3,x,target,0.409,target,test1,8090,17,
1,SupervisedSparse,3,x,target,0.59,target,test16,8090,18,
1,SupervisedSparse,3,n,nottarget,1.123,nottarget,contr10,8090,19,
1,SupervisedSparse,3,n,nottarget,0.451,nottarget,contr7,8090,20,
1,SupervisedSparse,3,n,nottarget,0.831,nottarget,contr4,8090,21,
1,SupervisedSparse,3,n,nottarget,0.5379999999999999,nottarget,catch1,8090,22,
1,SupervisedSparse,3,x,target,0.595,target,test3,8090,23,
1,SupervisedSparse,3,x,target,0.736,target,test12,8090,24,
1,SupervisedSparse,3,n,nottarget,0.46299999999999997,nottarget,contr9,8090,25,
1,SupervisedSparse,3,n,nottarget,0.65,nottarget,catch3,8090,26,
1,SupervisedSparse,3,n,nottarget,0.431,nottarget,catch4,8090,27,
0,SupervisedSparse,3,x,target,0.474,nottarget,contr3,8090,28,
0,SupervisedSparse,3,x,target,0.444,nottarget,contr2,8090,29,
1,SupervisedSparse,3,n,nottarget,0.488,nottarget,catch2,8090,30,
1,SupervisedSparse,3,x,target,0.73,target,test2,8090,31,
1,SupervisedSparse,3,n,nottarget,0.6890000000000001,nottarget,contr12,8090,32,
1,SupervisedSparse,3,n,nottarget,0.8759999999999999,nottarget,contr14,8090,33,
1,SupervisedSparse,3,x,target,0.542,target,test7,8090,34,
0,SupervisedSparse,3,x,target,2.053,nottarget,contr16,8090,35,
1,SupervisedSparse,3,x,target,0.664,target,test14,8090,36,
1,SupervisedSparse,3,n,nottarget,1.026,nottarget,contr8,8090,37,
1,SupervisedSparse,3,x,target,0.40700000000000003,target,test15,8090,38,
1,SupervisedSparse,3,x,target,0.41100000000000003,target,test10,8090,39,
1,SupervisedSparse,3,n,nottarget,0.375,nottarget,catch7,8090,40,
1,UnsupervisedDense,4,n,nottarget,4.209,nottarget,contr4,8090,1,
1,UnsupervisedDense,4,x,target,0.924,target,test13,8090,2,
1,UnsupervisedDense,4,x,target,0.516,target,test11,8090,3,
1,UnsupervisedDense,4,x,target,0.797,target,test16,8090,4,
1,UnsupervisedDense,4,x,target,0.5770000000000001,target,test3,8090,5,
1,UnsupervisedDense,4,n,nottarget,0.8640000000000001,nottarget,contr5,8090,6,
1,UnsupervisedDense,4,x,target,0.529,target,test5,8090,7,
1,UnsupervisedDense,4,n,nottarget,0.507,nottarget,contr10,8090,8,
1,UnsupervisedDense,4,x,target,0.46799999999999997,target,test15,8090,9,
1,UnsupervisedDense,4,n,nottarget,0.429,nottarget,contr3,8090,10,
1,UnsupervisedDense,4,x,target,0.48,target,test4,8090,11,
1,UnsupervisedDense,4,n,nottarget,1.043,nottarget,catch4,8090,12,
1,UnsupervisedDense,4,n,nottarget,1.126,nottarget,contr8,8090,13,
1,UnsupervisedDense,4,n,nottarget,0.647,nottarget,catch5,8090,14,
1,UnsupervisedDense,4,x,target,0.85,target,test9,8090,15,
1,UnsupervisedDense,4,n,nottarget,0.556,nottarget,contr12,8090,16,
1,UnsupervisedDense,4,x,target,0.579,target,test6,8090,17,
1,UnsupervisedDense,4,n,nottarget,0.584,nottarget,catch1,8090,18,
1,UnsupervisedDense,4,x,target,0.7340000000000001,target,test2,8090,19,
1,UnsupervisedDense,4,n,nottarget,0.782,nottarget,contr7,8090,20,
1,UnsupervisedDense,4,n,nottarget,0.845,nottarget,contr9,8090,21,
1,UnsupervisedDense,4,n,nottarget,0.727,nottarget,catch8,8090,22,
1,UnsupervisedDense,4,x,target,0.526,target,test10,8090,23,
1,UnsupervisedDense,4,n,nottarget,0.604,nottarget,catch3,8090,24,
1,UnsupervisedDense,4,n,nottarget,0.619,nottarget,catch2,8090,25,
1,UnsupervisedDense,4,n,nottarget,0.5589999999999999,nottarget,catch6,8090,26,
0,UnsupervisedDense,4,x,target,0.5489999999999999,nottarget,contr13,8090,27,
1,UnsupervisedDense,4,n,nottarget,0.909,nottarget,contr2,8090,28,
0,UnsupervisedDense,4,n,nottarget,2.821,target,test12,8090,29,
1,UnsupervisedDense,4,n,nottarget,0.8809999999999999,nottarget,contr16,8090,30,
1,UnsupervisedDense,4,n,nottarget,0.5479999999999999,nottarget,contr14,8090,31,
1,UnsupervisedDense,4,x,target,0.818,target,test7,8090,32,
1,UnsupervisedDense,4,n,nottarget,1.024,nottarget,catch7,8090,33,
1,UnsupervisedDense,4,n,nottarget,1.035,nottarget,contr15,8090,34,
1,UnsupervisedDense,4,n,nottarget,0.599,nottarget,contr6,8090,35,
1,UnsupervisedDense,4,x,target,0.9640000000000001,target,test14,8090,36,
1,UnsupervisedDense,4,n,nottarget,0.5379999999999999,nottarget,contr1,8090,37,
1,UnsupervisedDense,4,x,target,0.634,target,test1,8090,38,
0,UnsupervisedDense,4,None,None,9999.0,target,test8,8090,39,
1,UnsupervisedDense,4,n,nottarget,0.8809999999999999,nottarget,contr11,8090,40,
1,UnsupervisedDense,1,x,target,1.182,target,test11,8050,1,
1,UnsupervisedDense,1,n,nottarget,1.002,nottarget,contr3,8050,2,
1,UnsupervisedDense,1,x,target,0.777,target,test15,8050,3,
1,UnsupervisedDense,1,n,nottarget,1.0290000000000001,nottarget,catch1,8050,4,
1,UnsupervisedDense,1,n,nottarget,0.961,nottarget,contr10,8050,5,
1,UnsupervisedDense,1,x,target,0.639,target,test9,8050,6,
1,UnsupervisedDense,1,x,target,0.529,target,test2,8050,7,
1,UnsupervisedDense,1,x,target,0.682,target,test8,8050,8,
1,UnsupervisedDense,1,n,nottarget,0.6829999999999999,nottarget,contr4,8050,9,
1,UnsupervisedDense,1,n,nottarget,1.051,nottarget,contr12,8050,10,
1,UnsupervisedDense,1,n,nottarget,0.495,nottarget,catch2,8050,11,
1,UnsupervisedDense,1,n,nottarget,1.423,nottarget,catch6,8050,12,
1,UnsupervisedDense,1,n,nottarget,1.099,nottarget,contr16,8050,13,
1,UnsupervisedDense,1,n,nottarget,0.596,nottarget,contr7,8050,14,
1,UnsupervisedDense,1,n,nottarget,0.5670000000000001,nottarget,contr1,8050,15,
1,UnsupervisedDense,1,x,target,0.6940000000000001,target,test4,8050,16,
1,UnsupervisedDense,1,x,target,0.40700000000000003,target,test14,8050,17,
1,UnsupervisedDense,1,n,nottarget,0.562,nottarget,contr2,8050,18,
1,UnsupervisedDense,1,n,nottarget,0.449,nottarget,contr15,8050,19,
1,UnsupervisedDense,1,x,target,1.54,target,test5,8050,20,
1,UnsupervisedDense,1,n,nottarget,1.675,nottarget,catch4,8050,21,
1,UnsupervisedDense,1,n,nottarget,1.237,nottarget,contr9,8050,22,
1,UnsupervisedDense,1,n,nottarget,1.127,nottarget,catch7,8050,23,
1,UnsupervisedDense,1,x,target,0.759,target,test12,8050,24,
1,UnsupervisedDense,1,x,target,0.6829999999999999,target,test13,8050,25,
1,UnsupervisedDense,1,n,nottarget,0.654,nottarget,contr6,8050,26,
1,UnsupervisedDense,1,x,target,0.6890000000000001,target,test16,8050,27,
1,UnsupervisedDense,1,n,nottarget,0.897,nottarget,contr13,8050,28,
1,UnsupervisedDense,1,x,target,1.338,target,test7,8050,29,
1,UnsupervisedDense,1,n,nottarget,0.728,nottarget,catch5,8050,30,
1,UnsupervisedDense,1,n,nottarget,1.8730000000000002,nottarget,contr14,8050,31,
1,UnsupervisedDense,1,n,nottarget,0.721,nottarget,contr5,8050,32,
1,UnsupervisedDense,1,x,target,0.314,target,test10,8050,33,
1,UnsupervisedDense,1,n,nottarget,0.611,nottarget,contr8,8050,34,
1,UnsupervisedDense,1,x,target,0.622,target,test1,8050,35,
1,UnsupervisedDense,1,n,nottarget,0.29100000000000004,nottarget,catch8,8050,36,
1,UnsupervisedDense,1,n,nottarget,0.428,nottarget,catch3,8050,37,
0,UnsupervisedDense,1,x,target,0.447,nottarget,contr11,8050,38,
1,UnsupervisedDense,1,x,target,0.737,target,test3,8050,39,
1,UnsupervisedDense,1,x,target,0.833,target,test6,8050,40,
1,SupervisedDense,2,n,nottarget,1.952,nottarget,catch7,8050,1,
1,SupervisedDense,2,x,target,1.069,target,test12,8050,2,
1,SupervisedDense,2,x,target,1.494,target,test10,8050,3,
1,SupervisedDense,2,n,nottarget,2.447,nottarget,contr2,8050,4,
1,SupervisedDense,2,n,nottarget,0.9440000000000001,nottarget,contr6,8050,5,
1,SupervisedDense,2,x,target,0.64,target,test1,8050,6,
1,SupervisedDense,2,n,nottarget,0.636,nottarget,contr10,8050,7,
1,SupervisedDense,2,n,nottarget,0.759,nottarget,catch2,8050,8,
1,SupervisedDense,2,n,nottarget,1.117,nottarget,contr14,8050,9,
1,SupervisedDense,2,n,nottarget,0.669,nottarget,contr1,8050,10,
1,SupervisedDense,2,x,target,0.76,target,test4,8050,11,
1,SupervisedDense,2,n,nottarget,0.718,nottarget,contr16,8050,12,
1,SupervisedDense,2,x,target,0.838,target,test8,8050,13,
1,SupervisedDense,2,x,target,0.578,target,test9,8050,14,
1,SupervisedDense,2,n,nottarget,0.904,nottarget,contr15,8050,15,
1,SupervisedDense,2,x,target,0.624,target,test3,8050,16,
1,SupervisedDense,2,n,nottarget,0.763,nottarget,contr8,8050,17,
1,SupervisedDense,2,n,nottarget,1.338,nottarget,contr13,8050,18,
1,SupervisedDense,2,n,nottarget,0.465,nottarget,contr12,8050,19,
1,SupervisedDense,2,x,target,0.619,target,test13,8050,20,
1,SupervisedDense,2,n,nottarget,0.695,nottarget,contr3,8050,21,
1,SupervisedDense,2,x,target,0.424,target,test11,8050,22,
1,SupervisedDense,2,x,target,0.524,target,test2,8050,23,
1,SupervisedDense,2,n,nottarget,0.586,nottarget,contr4,8050,24,
1,SupervisedDense,2,n,nottarget,0.5920000000000001,nottarget,catch5,8050,25,
1,SupervisedDense,2,n,nottarget,0.645,nottarget,contr5,8050,26,
1,SupervisedDense,2,x,target,0.35100000000000003,target,test14,8050,27,
1,SupervisedDense,2,x,target,0.59,target,test6,8050,28,
1,SupervisedDense,2,n,nottarget,0.9079999999999999,nottarget,catch3,8050,29,
1,SupervisedDense,2,n,nottarget,0.8109999999999999,nottarget,contr9,8050,30,
1,SupervisedDense,2,n,nottarget,0.68,nottarget,catch8,8050,31,
1,SupervisedDense,2,n,nottarget,0.618,nottarget,catch6,8050,32,
1,SupervisedDense,2,x,target,0.868,target,test7,8050,33,
1,SupervisedDense,2,x,target,0.52,target,test15,8050,34,
1,SupervisedDense,2,x,target,0.624,target,test16,8050,35,
1,SupervisedDense,2,n,nottarget,0.691,nottarget,contr7,8050,36,
1,SupervisedDense,2,n,nottarget,0.62,nottarget,catch4,8050,37,
1,SupervisedDense,2,n,nottarget,0.6729999999999999,nottarget,contr11,8050,38,
1,SupervisedDense,2,x,target,0.753,target,test5,8050,39,
1,SupervisedDense,2,n,nottarget,0.6729999999999999,nottarget,catch1,8050,40,
1,SupervisedSparse,3,x,target,3.096,target,test1,8050,1,
1,SupervisedSparse,3,n,nottarget,1.161,nottarget,catch1,8050,2,
1,SupervisedSparse,3,x,target,0.815,target,test7,8050,3,
1,SupervisedSparse,3,x,target,0.963,target,test15,8050,4,
1,SupervisedSparse,3,n,nottarget,1.119,nottarget,contr8,8050,5,
1,SupervisedSparse,3,x,target,0.8320000000000001,target,test8,8050,6,
1,SupervisedSparse,3,n,nottarget,0.645,nottarget,catch2,8050,7,
1,SupervisedSparse,3,x,target,0.48700000000000004,target,test4,8050,8,
1,SupervisedSparse,3,n,nottarget,0.385,nottarget,contr15,8050,9,
1,SupervisedSparse,3,n,nottarget,0.39,nottarget,contr2,8050,10,
1,SupervisedSparse,3,n,nottarget,0.978,nottarget,catch3,8050,11,
1,SupervisedSparse,3,x,target,0.617,target,test11,8050,12,
1,SupervisedSparse,3,n,nottarget,0.725,nottarget,contr7,8050,13,
1,SupervisedSparse,3,x,target,1.46,target,test14,8050,14,
1,SupervisedSparse,3,n,nottarget,1.166,nottarget,contr10,8050,15,
1,SupervisedSparse,3,n,nottarget,0.524,nottarget,contr6,8050,16,
1,SupervisedSparse,3,n,nottarget,0.444,nottarget,catch6,8050,17,
1,SupervisedSparse,3,x,target,0.695,target,test16,8050,18,
1,SupervisedSparse,3,n,nottarget,0.519,nottarget,contr14,8050,19,
1,SupervisedSparse,3,x,target,1.319,target,test10,8050,20,
1,SupervisedSparse,3,n,nottarget,0.5589999999999999,nottarget,catch7,8050,21,
1,SupervisedSparse,3,n,nottarget,0.693,nottarget,contr13,8050,22,
1,SupervisedSparse,3,n,nottarget,0.447,nottarget,contr4,8050,23,
1,SupervisedSparse,3,n,nottarget,0.473,nottarget,contr16,8050,24,
1,SupervisedSparse,3,x,target,0.636,target,test13,8050,25,
1,SupervisedSparse,3,n,nottarget,0.504,nottarget,contr3,8050,26,
1,SupervisedSparse,3,n,nottarget,0.473,nottarget,contr1,8050,27,
1,SupervisedSparse,3,x,target,1.4180000000000001,target,test5,8050,28,
1,SupervisedSparse,3,n,nottarget,0.623,nottarget,catch5,8050,29,
1,SupervisedSparse,3,n,nottarget,0.747,nottarget,catch8,8050,30,
1,SupervisedSparse,3,n,nottarget,0.762,nottarget,contr9,8050,31,
1,SupervisedSparse,3,x,target,0.6,target,test6,8050,32,
1,SupervisedSparse,3,x,target,0.5870000000000001,target,test12,8050,33,
1,SupervisedSparse,3,n,nottarget,0.44299999999999995,nottarget,contr5,8050,34,
1,SupervisedSparse,3,n,nottarget,0.485,nottarget,contr11,8050,35,
1,SupervisedSparse,3,n,nottarget,0.511,nottarget,contr12,8050,36,
1,SupervisedSparse,3,x,target,0.768,target,test2,8050,37,
1,SupervisedSparse,3,x,target,0.951,target,test3,8050,38,
1,SupervisedSparse,3,x,target,0.875,target,test9,8050,39,
1,SupervisedSparse,3,n,nottarget,0.8140000000000001,nottarget,catch4,8050,40,
0,UnsupervisedSparse,4,x,target,2.26,nottarget,contr15,8050,1,
0,UnsupervisedSparse,4,n,nottarget,0.0,target,test6,8050,2,
0,UnsupervisedSparse,4,x,target,0.902,nottarget,contr1,8050,3,
1,UnsupervisedSparse,4,x,target,0.486,target,test2,8050,4,
1,UnsupervisedSparse,4,x,target,0.46399999999999997,target,test11,8050,5,
1,UnsupervisedSparse,4,x,target,0.6509999999999999,target,test16,8050,6,
1,UnsupervisedSparse,4,n,nottarget,0.7659999999999999,nottarget,catch4,8050,7,
0,UnsupervisedSparse,4,x,target,0.5820000000000001,nottarget,contr4,8050,8,
1,UnsupervisedSparse,4,x,target,0.331,target,test15,8050,9,
0,UnsupervisedSparse,4,x,target,0.33799999999999997,nottarget,catch2,8050,10,
1,UnsupervisedSparse,4,n,nottarget,0.914,nottarget,catch1,8050,11,
1,UnsupervisedSparse,4,x,target,0.693,target,test8,8050,12,
1,UnsupervisedSparse,4,n,nottarget,0.46799999999999997,nottarget,catch8,8050,13,
0,UnsupervisedSparse,4,x,target,0.423,nottarget,contr6,8050,14,
0,UnsupervisedSparse,4,x,target,0.364,nottarget,catch6,8050,15,
1,UnsupervisedSparse,4,n,nottarget,0.44299999999999995,nottarget,contr7,8050,16,
1,UnsupervisedSparse,4,x,target,0.975,target,test4,8050,17,
1,UnsupervisedSparse,4,x,target,0.5720000000000001,target,test3,8050,18,
1,UnsupervisedSparse,4,x,target,0.441,target,test10,8050,19,
0,UnsupervisedSparse,4,x,target,0.5489999999999999,nottarget,contr10,8050,20,
0,UnsupervisedSparse,4,x,target,0.47700000000000004,nottarget,contr13,8050,21,
1,UnsupervisedSparse,4,x,target,0.511,target,test13,8050,22,
1,UnsupervisedSparse,4,x,target,0.44,target,test7,8050,23,
0,UnsupervisedSparse,4,x,target,0.54,nottarget,contr3,8050,24,
0,UnsupervisedSparse,4,x,target,0.506,nottarget,contr2,8050,25,
0,UnsupervisedSparse,4,x,target,0.38,nottarget,contr16,8050,26,
1,UnsupervisedSparse,4,x,target,0.34600000000000003,target,test12,8050,27,
0,UnsupervisedSparse,4,x,target,0.386,nottarget,contr5,8050,28,
0,UnsupervisedSparse,4,x,target,0.415,nottarget,contr14,8050,29,
1,UnsupervisedSparse,4,x,target,0.444,target,test9,8050,30,
0,UnsupervisedSparse,4,x,target,0.35200000000000004,nottarget,contr9,8050,31,
1,UnsupervisedSparse,4,n,nottarget,1.774,nottarget,catch5,8050,32,
1,UnsupervisedSparse,4,n,nottarget,0.574,nottarget,catch3,8050,33,
0,UnsupervisedSparse,4,x,target,0.7709999999999999,nottarget,contr11,8050,34,
1,UnsupervisedSparse,4,x,target,0.474,target,test5,8050,35,
1,UnsupervisedSparse,4,x,target,0.45899999999999996,target,test1,8050,36,
0,UnsupervisedSparse,4,x,target,0.366,nottarget,contr12,8050,37,
1,UnsupervisedSparse,4,x,target,0.397,target,test14,8050,38,
0,UnsupervisedSparse,4,x,target,0.45,nottarget,contr8,8050,39,
1,UnsupervisedSparse,4,n,nottarget,0.647,nottarget,catch7,8050,40,
0,SupervisedDense,1,None,None,9999.0,target,test5,8013,1,
0,SupervisedDense,1,x,target,0.0,nottarget,contr16,8013,2,
1,SupervisedDense,1,n,nottarget,3.264,nottarget,catch7,8013,3,
1,SupervisedDense,1,x,target,2.154,target,test11,8013,4,
1,SupervisedDense,1,n,nottarget,1.153,nottarget,catch3,8013,5,
1,SupervisedDense,1,x,target,0.878,target,test8,8013,6,
1,SupervisedDense,1,x,target,1.138,target,test6,8013,7,
1,SupervisedDense,1,n,nottarget,0.995,nottarget,contr7,8013,8,
1,SupervisedDense,1,x,target,1.672,target,test4,8013,9,
1,SupervisedDense,1,n,nottarget,0.746,nottarget,contr1,8013,10,
1,SupervisedDense,1,n,nottarget,0.9209999999999999,nottarget,contr12,8013,11,
1,SupervisedDense,1,x,target,0.73,target,test9,8013,12,
1,SupervisedDense,1,n,nottarget,0.601,nottarget,contr3,8013,13,
1,SupervisedDense,1,x,target,0.59,target,test2,8013,14,
1,SupervisedDense,1,x,target,1.028,target,test12,8013,15,
1,SupervisedDense,1,n,nottarget,0.647,nottarget,contr14,8013,16,
1,SupervisedDense,1,n,nottarget,0.626,nottarget,catch1,8013,17,
1,SupervisedDense,1,x,target,0.8059999999999999,target,test16,8013,18,
1,SupervisedDense,1,n,nottarget,0.594,nottarget,catch6,8013,19,
1,SupervisedDense,1,n,nottarget,0.6629999999999999,nottarget,contr15,8013,20,
1,SupervisedDense,1,n,nottarget,0.746,nottarget,contr11,8013,21,
1,SupervisedDense,1,n,nottarget,0.5920000000000001,nottarget,contr9,8013,22,
1,SupervisedDense,1,n,nottarget,0.526,nottarget,contr13,8013,23,
1,SupervisedDense,1,x,target,1.4780000000000002,target,test13,8013,24,
1,SupervisedDense,1,x,target,0.91,target,test15,8013,25,
1,SupervisedDense,1,n,nottarget,1.062,nottarget,contr4,8013,26,
1,SupervisedDense,1,n,nottarget,0.785,nottarget,catch8,8013,27,
1,SupervisedDense,1,x,target,0.639,target,test7,8013,28,
1,SupervisedDense,1,n,nottarget,0.619,nottarget,contr10,8013,29,
1,SupervisedDense,1,x,target,0.6779999999999999,target,test10,8013,30,
1,SupervisedDense,1,n,nottarget,0.768,nottarget,contr2,8013,31,
1,SupervisedDense,1,n,nottarget,0.662,nottarget,catch4,8013,32,
1,SupervisedDense,1,n,nottarget,2.32,nottarget,contr5,8013,33,
1,SupervisedDense,1,n,nottarget,0.514,nottarget,contr6,8013,34,
1,SupervisedDense,1,n,nottarget,0.449,nottarget,contr8,8013,35,
1,SupervisedDense,1,n,nottarget,0.8440000000000001,nottarget,catch2,8013,36,
1,SupervisedDense,1,x,target,0.6629999999999999,target,test1,8013,37,
1,SupervisedDense,1,x,target,0.537,target,test3,8013,38,
1,SupervisedDense,1,x,target,0.634,target,test14,8013,39,
1,SupervisedDense,1,n,nottarget,0.43,nottarget,catch5,8013,40,
1,SupervisedSparse,2,x,target,4.996,target,test14,8013,1,
1,SupervisedSparse,2,n,nottarget,1.112,nottarget,contr3,8013,2,
1,SupervisedSparse,2,x,target,0.705,target,test2,8013,3,
1,SupervisedSparse,2,x,target,1.665,target,test10,8013,4,
1,SupervisedSparse,2,x,target,0.508,target,test16,8013,5,
1,SupervisedSparse,2,x,target,0.41100000000000003,target,test6,8013,6,
1,SupervisedSparse,2,n,nottarget,0.441,nottarget,catch7,8013,7,
0,SupervisedSparse,2,x,target,0.396,nottarget,contr2,8013,8,
0,SupervisedSparse,2,x,target,0.441,nottarget,contr7,8013,9,
1,SupervisedSparse,2,x,target,0.6759999999999999,target,test7,8013,10,
0,SupervisedSparse,2,x,target,0.862,nottarget,contr1,8013,11,
1,SupervisedSparse,2,x,target,0.616,target,test9,8013,12,
1,SupervisedSparse,2,n,nottarget,0.821,nottarget,contr11,8013,13,
1,SupervisedSparse,2,n,nottarget,0.866,nottarget,catch2,8013,14,
1,SupervisedSparse,2,n,nottarget,0.491,nottarget,catch5,8013,15,
0,SupervisedSparse,2,x,target,0.493,nottarget,contr8,8013,16,
1,SupervisedSparse,2,n,nottarget,0.503,nottarget,catch8,8013,17,
1,SupervisedSparse,2,n,nottarget,0.504,nottarget,catch6,8013,18,
1,SupervisedSparse,2,x,target,0.401,target,test5,8013,19,
1,SupervisedSparse,2,x,target,0.335,target,test1,8013,20,
1,SupervisedSparse,2,n,nottarget,0.42200000000000004,nottarget,catch1,8013,21,
0,SupervisedSparse,2,x,target,0.419,nottarget,contr16,8013,22,
0,SupervisedSparse,2,x,target,0.377,nottarget,contr14,8013,23,
1,SupervisedSparse,2,x,target,0.623,target,test15,8013,24,
0,SupervisedSparse,2,x,target,0.8490000000000001,nottarget,contr12,8013,25,
1,SupervisedSparse,2,x,target,1.605,target,test4,8013,26,
1,SupervisedSparse,2,x,target,0.433,target,test12,8013,27,
0,SupervisedSparse,2,x,target,0.382,nottarget,contr6,8013,28,
0,SupervisedSparse,2,x,target,0.332,nottarget,contr9,8013,29,
1,SupervisedSparse,2,x,target,0.491,target,test13,8013,30,
0,SupervisedSparse,2,x,target,0.741,nottarget,contr5,8013,31,
1,SupervisedSparse,2,n,nottarget,0.45399999999999996,nottarget,catch3,8013,32,
0,SupervisedSparse,2,n,nottarget,0.425,target,test11,8013,33,
1,SupervisedSparse,2,n,nottarget,0.516,nottarget,catch4,8013,34,
1,SupervisedSparse,2,n,nottarget,0.581,nottarget,contr4,8013,35,
1,SupervisedSparse,2,x,target,0.38799999999999996,target,test3,8013,36,
0,SupervisedSparse,2,x,target,0.696,nottarget,contr13,8013,37,
1,SupervisedSparse,2,x,target,0.37,target,test8,8013,38,
1,SupervisedSparse,2,n,nottarget,0.625,nottarget,contr10,8013,39,
1,SupervisedSparse,2,n,nottarget,0.37200000000000005,nottarget,contr15,8013,40,
1,UnsupervisedSparse,3,x,target,3.235,target,test12,8013,1,
1,UnsupervisedSparse,3,n,nottarget,1.126,nottarget,catch1,8013,2,
